"","subjectID","which_task","order_index","word","key","RT","correct","answer_type","trigger","word_pseudoword_numeric","frequency","language","test","sequence","condition","d_e_sw","e_d_sw","word_nonword","TrialNumber"
"1","C27","German",136,"Splitschaft","RightArrow",2.14491009712219,1,"CorrRej",162,"0","PW","german",2,NA,NA,NA,NA,"nonword",100
"2","C27","German",90,"Muschel","LeftArrow",2.43476486206055,1,"Hit",160,"1","LF","german",2,NA,NA,NA,NA,"word",122
"3","C27","German",32,"Essig","LeftArrow",3.32168889045715,1,"Hit",160,"1","LF","german",2,NA,NA,NA,NA,"word",159
"4","C27","English",47,"Garden","LeftArrow",2.15489315986633,1,"Hit",261,"1","HF","english",2,NA,NA,NA,NA,"word",33
"5","C27","English",88,"Nadow","RightArrow",3.11253094673157,1,"CorrRej",262,"0","PW","english",2,NA,NA,NA,NA,"nonword",49
"6","C27","English",11,"Bunkhouse","LeftArrow",3.41681790351868,1,"Hit",260,"1","LF","english",2,NA,NA,NA,NA,"word",54
"7","C27","English",160,"Trouser","LeftArrow",2.28691005706787,1,"Hit",260,"1","LF","english",2,NA,NA,NA,NA,"word",55
"8","C27","English",36,"Drizzle","LeftArrow",3.95230889320374,1,"Hit",260,"1","LF","english",2,NA,NA,NA,NA,"word",57
"9","C27","English",174,"Weekend","LeftArrow",4.50212287902832,1,"Hit",261,"1","HF","english",2,NA,NA,NA,NA,"word",58
"10","C27","English",161,"Trylob","LeftArrow",2.21977710723877,0,"FalseAlarm",267,"0","PW","english",2,NA,NA,NA,NA,"nonword",160
"11","C27","Switch",NA,"Rickshaw","LeftArrow",2.20192694664001,1,"d_e_hit",312,"1",NA,"english",2,"E","GE",1,NA,"word",92
"12","C27","Switch",NA,"Petpea","RightArrow",2.27765202522278,1,"e_p_crj",316,"0",NA,"nonword",2,"P","ENW",NA,NA,"nonword",94
"13","C27","Switch",NA,"Surgeon","LeftArrow",2.9379301071167,1,"e_e_hit",315,"1",NA,"english",2,"E","EE",NA,NA,"word",417
"14","C27","Switch",NA,"Carftbeat","RightArrow",2.13073301315308,1,"p_p_crj",319,"0",NA,"nonword",2,"P","NWNW",NA,NA,"nonword",424
"15","C27","Switch",NA,"Apron","LeftArrow",2.11514496803284,1,"d_e_hit",312,"1",NA,"english",2,"E","GE",1,NA,"word",440
"16","C27","Switch",NA,"Rhubarb","LeftArrow",3.65926814079285,1,"d_e_hit",312,"1",NA,"english",2,"E","GE",1,NA,"word",448
"17","C27","Switch",NA,"Railtrol","RightArrow",2.27259206771851,1,"d_p_crj",313,"0",NA,"nonword",2,"P","GNW",NA,NA,"nonword",476
"18","C29","German",148,"Theaus","RightArrow",2.44009804725647,1,"CorrRej",162,"0","PW","german",2,NA,NA,NA,NA,"nonword",1
"19","C29","German",103,"Pfeife","LeftArrow",4.06425309181213,1,"Hit",160,"1","LF","german",2,NA,NA,NA,NA,"word",3
"20","C29","German",140,"Spritze","LeftArrow",3.26396799087524,1,"Hit",160,"1","LF","german",2,NA,NA,NA,NA,"word",9
"21","C29","English",156,"Tactic","LeftArrow",2.25542497634888,1,"Hit",260,"1","LF","english",2,NA,NA,NA,NA,"word",1
"22","C29","English",168,"Villber","RightArrow",2.18039488792419,1,"CorrRej",262,"0","PW","english",2,NA,NA,NA,NA,"nonword",4
"23","C29","English",171,"Weather","LeftArrow",2.97522711753845,1,"Hit",261,"1","HF","english",2,NA,NA,NA,NA,"word",14
"24","C29","English",67,"Lettuce","RightArrow",2.10274791717529,0,"Missing",265,"1","LF","english",2,NA,NA,NA,NA,"word",16
"25","C29","English",109,"Plery","LeftArrow",2.00156807899475,0,"FalseAlarm",267,"0","PW","english",2,NA,NA,NA,NA,"nonword",18
"26","C29","English",47,"Garden","LeftArrow",2.16380596160889,1,"Hit",261,"1","HF","english",2,NA,NA,NA,NA,"word",47
"27","C29","English",82,"Monsoon","RightArrow",2.36425685882568,0,"Missing",265,"1","LF","english",2,NA,NA,NA,NA,"word",64
"28","C29","English",101,"Pancake","LeftArrow",2.27936577796936,1,"Hit",260,"1","LF","english",2,NA,NA,NA,NA,"word",68
"29","C29","English",38,"Endster","RightArrow",3.67652297019958,1,"CorrRej",262,"0","PW","english",2,NA,NA,NA,NA,"nonword",70
"30","C29","English",159,"Traffic","LeftArrow",2.10022902488708,1,"Hit",261,"1","HF","english",2,NA,NA,NA,NA,"word",105
"31","C29","English",23,"Cockroach","RightArrow",2.6257700920105,0,"Missing",265,"1","LF","english",2,NA,NA,NA,NA,"word",130
"32","C29","English",136,"Shower","LeftArrow",3.64074516296387,1,"Hit",261,"1","HF","english",2,NA,NA,NA,NA,"word",133
"33","C29","English",16,"Canon","LeftArrow",2.90338015556335,1,"Hit",260,"1","LF","english",2,NA,NA,NA,NA,"word",160
"34","C29","English",160,"Trouser","LeftArrow",3.48111605644226,1,"Hit",260,"1","LF","english",2,NA,NA,NA,NA,"word",176
"35","C29","Switch",NA,"Senlau","RightArrow",3.15920305252075,1,"e_p_crj",316,"0",NA,"nonword",2,"P","ENW",NA,NA,"nonword",4
"36","C29","Switch",NA,"Scheune","LeftArrow",2.60883498191833,1,"e_d_hit",314,"1",NA,"german",2,"D","EG",NA,1,"word",73
"37","C29","Switch",NA,"Plantmus","RightArrow",2.43312501907349,1,"p_p_crj",319,"0",NA,"nonword",2,"P","NWNW",NA,NA,"nonword",136
"38","C29","Switch",NA,"Kuckdau","RightArrow",2.04454588890076,1,"p_p_crj",319,"0",NA,"nonword",2,"P","NWNW",NA,NA,"nonword",361
"39","C29","Switch",NA,"Heater","LeftArrow",2.65033507347107,1,"d_e_hit",312,"1",NA,"english",2,"E","GE",1,NA,"word",407
"40","C50","English",99,"Ozard","RightArrow",2.30923295021057,1,"CorrRej",262,"0","PW","english",2,NA,NA,NA,NA,"nonword",1
"41","C51","German",80,"Massstab","LeftArrow",2.16482305526733,1,"Hit",160,"1","LF","german",2,NA,NA,NA,NA,"word",103
"42","C51","English",77,"Methcon","RightArrow",5.19706416130066,1,"CorrRej",262,"0","PW","english",2,NA,NA,NA,NA,"nonword",28
"43","C51","English",91,"Neighbark","RightArrow",2.04537582397461,1,"CorrRej",262,"0","PW","english",2,NA,NA,NA,NA,"nonword",57
"44","C51","English",56,"Harcoun","RightArrow",2.19335198402405,1,"CorrRej",262,"0","PW","english",2,NA,NA,NA,NA,"nonword",158
"45","C51","English",145,"Subpac","LeftArrow",2.28708481788635,0,"FalseAlarm",267,"0","PW","english",2,NA,NA,NA,NA,"nonword",176
"46","C51","Switch",NA,"Wearloan","RightArrow",2.08176779747009,1,"p_p_crj",319,"0",NA,"nonword",2,"P","NWNW",NA,NA,"nonword",277
"47","C51","Switch",NA,"Trombone","RightArrow",2.03177404403687,0,"p_e_miss",328,"1",NA,"english",2,"E","NWE",NA,NA,"word",288
"48","C52","Switch",NA,"Melgen","LeftArrow",0.276872158050537,0,"e_p_fa",326,"0",NA,"nonword",2,"P","ENW",NA,NA,"nonword",271
"49","C52","Switch",NA,"Slipdol","LeftArrow",2.03386902809143,0,"p_p_fa",329,"0",NA,"nonword",2,"P","NWNW",NA,NA,"nonword",64
"50","C52","Switch",NA,"Chisel","RightArrow",3.11633992195129,0,"p_e_miss",328,"1",NA,"english",2,"E","NWE",NA,NA,"word",96
"51","C52","Switch",NA,"Leypan","RightArrow",2.00190496444702,1,"p_p_crj",319,"0",NA,"nonword",2,"P","NWNW",NA,NA,"nonword",98
"52","C52","Switch",NA,"Zwieglet","LeftArrow",2.36782717704773,0,"d_p_fa",323,"0",NA,"nonword",2,"P","GNW",NA,NA,"nonword",111
"53","C52","Switch",NA,"Tachret","RightArrow",2.57100605964661,1,"p_p_crj",319,"0",NA,"nonword",2,"P","NWNW",NA,NA,"nonword",128
"54","C52","Switch",NA,"Radish","RightArrow",2.12979197502136,0,"d_e_miss",322,"1",NA,"english",2,"E","GE",1,NA,"word",151
"55","C52","Switch",NA,"Garbad","RightArrow",2.2180609703064,1,"e_p_crj",316,"0",NA,"nonword",2,"P","ENW",NA,NA,"nonword",155
"56","C52","Switch",NA,"Phincoat","LeftArrow",2.26388692855835,0,"e_p_fa",326,"0",NA,"nonword",2,"P","ENW",NA,NA,"nonword",170
"57","C52","Switch",NA,"Pfirber","RightArrow",2.29970908164978,1,"p_p_crj",319,"0",NA,"nonword",2,"P","NWNW",NA,NA,"nonword",192
"58","C52","Switch",NA,"Schemel","LeftArrow",2.42624711990356,1,"d_d_hit",311,"1",NA,"german",2,"D","GG",NA,NA,"word",226
"59","C52","Switch",NA,"Linen","LeftArrow",3.69734692573547,1,"e_e_hit",315,"1",NA,"english",2,"E","EE",NA,NA,"word",228
"60","C52","Switch",NA,"Balcraft","RightArrow",2.40926599502563,1,"p_p_crj",319,"0",NA,"nonword",2,"P","NWNW",NA,NA,"nonword",264
"61","C52","Switch",NA,"Selwild","RightArrow",2.16774201393127,1,"e_p_crj",316,"0",NA,"nonword",2,"P","ENW",NA,NA,"nonword",290
"62","C52","Switch",NA,"Prirant","LeftArrow",2.61633396148682,0,"e_p_fa",326,"0",NA,"nonword",2,"P","ENW",NA,NA,"nonword",303
"63","C52","Switch",NA,"Storschmitt","RightArrow",2.56454992294312,1,"e_p_crj",316,"0",NA,"nonword",2,"P","ENW",NA,NA,"nonword",434
"64","C53","English",96,"Odour","RightArrow",2.61775302886963,0,"Missing",265,"1","LF","english",2,NA,NA,NA,NA,"word",88
"65","C53","Switch",NA,"Soltrol","LeftArrow",0.292824983596802,0,"e_p_fa",326,"0",NA,"nonword",2,"P","ENW",NA,NA,"nonword",432
"66","C53","Switch",NA,"Waistcoat","LeftArrow",2.49782180786133,1,"p_e_hit",318,"1",NA,"english",2,"E","NWE",NA,NA,"word",317
"67","C54","English",106,"Picpan","RightArrow",2.99201488494873,1,"CorrRej",262,"0","PW","english",2,NA,NA,NA,NA,"nonword",129
"68","C54","Switch",NA,"Orkan","LeftArrow",2.08642101287842,1,"d_d_hit",311,"1",NA,"german",2,"D","GG",NA,NA,"word",107
"69","C54","Switch",NA,"Saucepan","LeftArrow",2.9242057800293,1,"d_e_hit",312,"1",NA,"english",2,"E","GE",1,NA,"word",115
"70","C54","Switch",NA,"Pigmal","RightArrow",2.05329418182373,1,"d_p_crj",313,"0",NA,"nonword",2,"P","GNW",NA,NA,"nonword",117
"71","C54","Switch",NA,"Coatmet","RightArrow",2.6414909362793,1,"e_p_crj",316,"0",NA,"nonword",2,"P","ENW",NA,NA,"nonword",138
"72","C54","Switch",NA,"Walpfrei","RightArrow",2.79475903511047,1,"p_p_crj",319,"0",NA,"nonword",2,"P","NWNW",NA,NA,"nonword",211
"73","C54","Switch",NA,"Pliers","LeftArrow",2.45163416862488,1,"d_e_hit",312,"1",NA,"english",2,"E","GE",1,NA,"word",256
"74","C54","Switch",NA,"Stocers","RightArrow",2.28583288192749,1,"e_p_crj",316,"0",NA,"nonword",2,"P","ENW",NA,NA,"nonword",299
"75","C54","Switch",NA,"Kuckdau","RightArrow",2.31527805328369,1,"p_p_crj",319,"0",NA,"nonword",2,"P","NWNW",NA,NA,"nonword",361
"76","C54","Switch",NA,"Prekey","LeftArrow",4.03473496437073,0,"e_p_fa",326,"0",NA,"nonword",2,"P","ENW",NA,NA,"nonword",426
"77","C55","German",1,"Affe","RightArrow",0.259042024612427,0,"Missing",165,"1","LF","german",2,NA,NA,NA,NA,"word",26
"78","C55","German",42,"Frontum","RightArrow",2.17570996284485,1,"CorrRej",162,"0","PW","german",2,NA,NA,NA,NA,"nonword",2
"79","C55","German",41,"Freitag","LeftArrow",43.6952860355377,1,"Hit",161,"1","HF","german",2,NA,NA,NA,NA,"word",11
"80","C55","German",54,"Handschuh","LeftArrow",9.92991304397583,1,"Hit",160,"1","LF","german",2,NA,NA,NA,NA,"word",12
"81","C55","German",114,"Rolle","LeftArrow",20.6135928630829,1,"Hit",161,"1","HF","german",2,NA,NA,NA,NA,"word",14
"82","C55","German",179,"Zerrung","LeftArrow",8.89035797119141,1,"Hit",160,"1","LF","german",2,NA,NA,NA,NA,"word",15
"83","C55","German",143,"Stimme","LeftArrow",2.295658826828,1,"Hit",161,"1","HF","german",2,NA,NA,NA,NA,"word",16
"84","C55","German",48,"Glafa","RightArrow",2.86580300331116,1,"CorrRej",162,"0","PW","german",2,NA,NA,NA,NA,"nonword",17
"85","C55","German",144,"Stunde","LeftArrow",10.6737899780273,1,"Hit",161,"1","HF","german",2,NA,NA,NA,NA,"word",18
"86","C55","German",165,"Weifang","RightArrow",10.3091080188751,1,"CorrRej",162,"0","PW","german",2,NA,NA,NA,NA,"nonword",19
"87","C55","German",159,"Vertrag","LeftArrow",8.94021892547607,1,"Hit",161,"1","HF","german",2,NA,NA,NA,NA,"word",21
"88","C55","German",64,"Klemptur","RightArrow",2.11406803131104,1,"CorrRej",162,"0","PW","german",2,NA,NA,NA,NA,"nonword",23
"89","C55","German",105,"Pickel","LeftArrow",3.19693803787231,1,"Hit",160,"1","LF","german",2,NA,NA,NA,NA,"word",24
"90","C55","German",123,"Schleife","LeftArrow",2.14136505126953,1,"Hit",160,"1","LF","german",2,NA,NA,NA,NA,"word",27
"91","C55","German",103,"Pfeife","LeftArrow",2.80885791778564,1,"Hit",160,"1","LF","german",2,NA,NA,NA,NA,"word",30
"92","C55","German",142,"Stachel","LeftArrow",27.9647860527039,1,"Hit",160,"1","LF","german",2,NA,NA,NA,NA,"word",31
"93","C55","German",112,"Rauzept","RightArrow",2.40576100349426,1,"CorrRej",162,"0","PW","german",2,NA,NA,NA,NA,"nonword",32
"94","C55","German",136,"Splitschaft","RightArrow",3.07803988456726,1,"CorrRej",162,"0","PW","german",2,NA,NA,NA,NA,"nonword",36
"95","C55","German",6,"Antwort","LeftArrow",5.24976682662964,1,"Hit",161,"1","HF","german",2,NA,NA,NA,NA,"word",39
"96","C55","German",57,"Kapsel","LeftArrow",5.69258904457092,1,"Hit",160,"1","LF","german",2,NA,NA,NA,NA,"word",40
"97","C55","German",13,"Beitee","RightArrow",2.46357297897339,1,"CorrRej",162,"0","PW","german",2,NA,NA,NA,NA,"nonword",52
"98","C55","German",111,"Raupe","LeftArrow",12.4772379398346,1,"Hit",160,"1","LF","german",2,NA,NA,NA,NA,"word",55
"99","C55","German",39,"Folke","RightArrow",3.77150416374207,1,"CorrRej",162,"0","PW","german",2,NA,NA,NA,NA,"nonword",67
"100","C55","German",139,"Sprecher","LeftArrow",8.75880789756775,1,"Hit",161,"1","HF","german",2,NA,NA,NA,NA,"word",70
"101","C55","German",153,"Tochter","LeftArrow",2.30639004707336,1,"Hit",161,"1","HF","german",2,NA,NA,NA,NA,"word",79
"102","C55","German",18,"Bilzent","RightArrow",2.18692302703857,1,"CorrRej",162,"0","PW","german",2,NA,NA,NA,NA,"nonword",85
"103","C55","German",126,"Schratoch","RightArrow",4.3735249042511,1,"CorrRej",162,"0","PW","german",2,NA,NA,NA,NA,"nonword",90
"104","C55","German",67,"Kochtopf","LeftArrow",3.56341481208801,1,"Hit",160,"1","LF","german",2,NA,NA,NA,NA,"word",93
"105","C55","German",99,"Nordmor","RightArrow",2.58238697052002,1,"CorrRej",162,"0","PW","german",2,NA,NA,NA,NA,"nonword",103
"106","C55","German",104,"Pfeimass","RightArrow",2.40755605697632,1,"CorrRej",162,"0","PW","german",2,NA,NA,NA,NA,"nonword",107
"107","C55","German",135,"Splitbus","RightArrow",2.03871417045593,1,"CorrRej",162,"0","PW","german",2,NA,NA,NA,NA,"nonword",137
"108","C55","German",119,"Schaftzan","LeftArrow",2.05171799659729,0,"FalseAlarm",167,"0","PW","german",2,NA,NA,NA,NA,"nonword",145
"109","C55","English",168,"Villber","LeftArrow",0.262773036956787,0,"FalseAlarm",267,"0","PW","english",2,NA,NA,NA,NA,"nonword",16
"110","C55","English",51,"Gladay","LeftArrow",0.21118688583374,0,"FalseAlarm",267,"0","PW","english",2,NA,NA,NA,NA,"nonword",156
"111","C55","English",154,"Sweetprea","RightArrow",3.99447107315063,1,"CorrRej",262,"0","PW","english",2,NA,NA,NA,NA,"nonword",17
"112","C55","English",29,"Courtber","RightArrow",2.17864799499512,1,"CorrRej",262,"0","PW","english",2,NA,NA,NA,NA,"nonword",66
"113","C55","English",33,"Denset","RightArrow",2.19589495658875,1,"CorrRej",262,"0","PW","english",2,NA,NA,NA,NA,"nonword",106
"114","C55","English",106,"Picpan","RightArrow",2.36072897911072,1,"CorrRej",262,"0","PW","english",2,NA,NA,NA,NA,"nonword",143
"115","C55","English",63,"Jectlet","RightArrow",17.6129539012909,1,"CorrRej",262,"0","PW","english",2,NA,NA,NA,NA,"nonword",148
"116","C55","English",35,"Dording","RightArrow",4.45454096794128,1,"CorrRej",262,"0","PW","english",2,NA,NA,NA,NA,"nonword",149
"117","C55","English",170,"Water","LeftArrow",5.61343598365784,1,"Hit",261,"1","HF","english",2,NA,NA,NA,NA,"word",155
"118","C55","English",26,"Councher","LeftArrow",3.83484792709351,0,"FalseAlarm",267,"0","PW","english",2,NA,NA,NA,NA,"nonword",158
"119","C55","English",146,"Subraffe","RightArrow",7.04302000999451,1,"CorrRej",262,"0","PW","english",2,NA,NA,NA,NA,"nonword",159
"120","C55","English",5,"Basil","LeftArrow",2.17138409614563,1,"Hit",260,"1","LF","english",2,NA,NA,NA,NA,"word",162
"121","C55","English",28,"Couple","LeftArrow",16.1737611293793,1,"Hit",261,"1","HF","english",2,NA,NA,NA,NA,"word",163
"122","C55","English",37,"Effort","LeftArrow",2.89193201065063,1,"Hit",261,"1","HF","english",2,NA,NA,NA,NA,"word",164
"123","C55","English",77,"Methcon","RightArrow",3.36583399772644,1,"CorrRej",262,"0","PW","english",2,NA,NA,NA,NA,"nonword",168
"124","C55","English",121,"Racket","RightArrow",3.43786406517029,0,"Missing",265,"1","LF","english",2,NA,NA,NA,NA,"word",173
"125","C55","Switch",NA,"Copair","RightArrow",2.25261783599854,1,"e_p_crj",316,"0",NA,"nonword",2,"P","ENW",NA,NA,"nonword",21
"126","C55","Switch",NA,"Plantmus","RightArrow",2.2886369228363,1,"p_p_crj",319,"0",NA,"nonword",2,"P","NWNW",NA,NA,"nonword",136
"127","C55","Switch",NA,"Pfirber","RightArrow",2.24319505691528,1,"p_p_crj",319,"0",NA,"nonword",2,"P","NWNW",NA,NA,"nonword",192
"128","C55","Switch",NA,"Scherich","RightArrow",2.24213695526123,1,"d_p_crj",313,"0",NA,"nonword",2,"P","GNW",NA,NA,"nonword",206
"129","C55","Switch",NA,"Walpfrei","RightArrow",2.26001811027527,1,"p_p_crj",319,"0",NA,"nonword",2,"P","NWNW",NA,NA,"nonword",211
"130","C55","Switch",NA,"Linen","RightArrow",2.32840895652771,0,"e_e_miss",325,"1",NA,"english",2,"E","EE",NA,NA,"word",228
"131","C55","Switch",NA,"Reindeer","LeftArrow",3.32656693458557,1,"d_e_hit",312,"1",NA,"english",2,"E","GE",1,NA,"word",230
"132","C55","Switch",NA,"Balcraft","RightArrow",3.50720691680908,1,"p_p_crj",319,"0",NA,"nonword",2,"P","NWNW",NA,NA,"nonword",264
"133","C55","Switch",NA,"Baglor","RightArrow",2.77720499038696,1,"p_p_crj",319,"0",NA,"nonword",2,"P","NWNW",NA,NA,"nonword",280
"134","C55","Switch",NA,"Prirant","RightArrow",2.14610886573792,1,"e_p_crj",316,"0",NA,"nonword",2,"P","ENW",NA,NA,"nonword",303
"135","C55","Switch",NA,"Mortist","RightArrow",2.72598910331726,1,"d_p_crj",313,"0",NA,"nonword",2,"P","GNW",NA,NA,"nonword",332
"136","C55","Switch",NA,"Surfree","RightArrow",2.75635099411011,1,"p_p_crj",319,"0",NA,"nonword",2,"P","NWNW",NA,NA,"nonword",360
"137","C55","Switch",NA,"Gable","RightArrow",3.83724212646484,0,"d_e_miss",322,"1",NA,"english",2,"E","GE",1,NA,"word",443
"138","C55","Switch",NA,"Stiebrik","RightArrow",2.12450909614563,1,"d_p_crj",313,"0",NA,"nonword",2,"P","GNW",NA,NA,"nonword",445
"139","C55","Switch",NA,"Richset","RightArrow",2.21183705329895,1,"e_p_crj",316,"0",NA,"nonword",2,"P","ENW",NA,NA,"nonword",458
"140","C55","Switch",NA,"Railtrol","RightArrow",2.52205991744995,1,"d_p_crj",313,"0",NA,"nonword",2,"P","GNW",NA,NA,"nonword",476
"141","C56","English",53,"Glavel","RightArrow",2.87949013710022,1,"CorrRej",262,"0","PW","english",2,NA,NA,NA,NA,"nonword",42
"142","C56","Switch",NA,"Litschi","LeftArrow",2.2279679775238,1,"e_d_hit",314,"1",NA,"german",2,"D","EG",NA,1,"word",79
"143","C57","Switch",NA,"Wolke","LeftArrow",2.5853259563446,1,"e_d_hit",314,"1",NA,"german",2,"D","EG",NA,1,"word",327
"144","C57","Switch",NA,"Wearlpie","RightArrow",2.4329731464386,1,"p_p_crj",319,"0",NA,"nonword",2,"P","NWNW",NA,NA,"nonword",420
"145","C58","German",5,"Ansprit","RightArrow",2.18284511566162,1,"CorrRej",162,"0","PW","german",2,NA,NA,NA,NA,"nonword",135
"146","C58","English",82,"Monsoon","LeftArrow",2.51351499557495,1,"Hit",260,"1","LF","english",2,NA,NA,NA,NA,"word",125
"147","C58","English",20,"Cheetah","RightArrow",2.00857305526733,0,"Missing",265,"1","LF","english",2,NA,NA,NA,NA,"word",153
"148","C58","Switch",NA,"Pawnsit","RightArrow",2.04860591888428,1,"e_p_crj",316,"0",NA,"nonword",2,"P","ENW",NA,NA,"nonword",97
"149","C58","Switch",NA,"Cutter","RightArrow",2.24792909622192,0,"d_e_miss",322,"1",NA,"english",2,"E","GE",1,NA,"word",253
"150","C58","Switch",NA,"Bunker","RightArrow",2.00503993034363,0,"p_d_miss",327,"1",NA,"german",2,"D","NWG",NA,NA,"word",291
"151","C58","Switch",NA,"Hammock","RightArrow",2.14317393302917,0,"e_e_miss",325,"1",NA,"english",2,"E","EE",NA,NA,"word",380
"152","C58","Switch",NA,"Rainshaw","LeftArrow",3.34339189529419,0,"d_p_fa",323,"0",NA,"nonword",2,"P","GNW",NA,NA,"nonword",428
"153","C58","Switch",NA,"Juicer","RightArrow",2.32803201675415,0,"d_e_miss",322,"1",NA,"english",2,"E","GE",1,NA,"word",431
"154","C58","Switch",NA,"Storschmitt","RightArrow",2.02750182151794,1,"e_p_crj",316,"0",NA,"nonword",2,"P","ENW",NA,NA,"nonword",434
"155","C58","Switch",NA,"Meise","LeftArrow",2.4459490776062,1,"e_d_hit",314,"1",NA,"german",2,"D","EG",NA,1,"word",444
"156","C58","Switch",NA,"Richset","RightArrow",2.08229112625122,1,"e_p_crj",316,"0",NA,"nonword",2,"P","ENW",NA,NA,"nonword",458
"157","C58","Switch",NA,"Ladrich","RightArrow",2.81614708900452,1,"e_p_crj",316,"0",NA,"nonword",2,"P","ENW",NA,NA,"nonword",473
"158","C59","German",62,"Klempheit","RightArrow",2.0010130405426,1,"CorrRej",162,"0","PW","german",2,NA,NA,NA,NA,"nonword",13
"159","C59","German",74,"Lenckel","RightArrow",3.43012309074402,1,"CorrRej",162,"0","PW","german",2,NA,NA,NA,NA,"nonword",31
"160","C59","German",174,"Zeiben","RightArrow",3.54925394058228,1,"CorrRej",162,"0","PW","german",2,NA,NA,NA,NA,"nonword",53
"161","C59","German",95,"Natzer","RightArrow",4.1582190990448,1,"CorrRej",162,"0","PW","german",2,NA,NA,NA,NA,"nonword",54
"162","C59","German",150,"Tischler","LeftArrow",2.17927002906799,1,"Hit",160,"1","LF","german",2,NA,NA,NA,NA,"word",56
"163","C59","German",19,"Bocher","RightArrow",2.84801506996155,1,"CorrRej",162,"0","PW","german",2,NA,NA,NA,NA,"nonword",58
"164","C59","German",165,"Weifang","RightArrow",3.50665092468262,1,"CorrRej",162,"0","PW","german",2,NA,NA,NA,NA,"nonword",83
"165","C59","German",147,"Teiben","RightArrow",2.25954103469849,1,"CorrRej",162,"0","PW","german",2,NA,NA,NA,NA,"nonword",101
"166","C59","German",67,"Kochtopf","LeftArrow",2.71931886672974,1,"Hit",160,"1","LF","german",2,NA,NA,NA,NA,"word",121
"167","C59","English",88,"Nadow","RightArrow",2.00768709182739,1,"CorrRej",262,"0","PW","english",2,NA,NA,NA,NA,"nonword",34
"168","C59","English",56,"Harcoun","RightArrow",2.65085697174072,1,"CorrRej",262,"0","PW","english",2,NA,NA,NA,NA,"nonword",55
"169","C59","English",48,"Giraffe","LeftArrow",2.62215495109558,1,"Hit",260,"1","LF","english",2,NA,NA,NA,NA,"word",62
"170","C59","English",25,"Coreting","LeftArrow",2.28355407714844,0,"FalseAlarm",267,"0","PW","english",2,NA,NA,NA,NA,"nonword",78
"171","C59","English",46,"Forweath","RightArrow",2.67881798744202,1,"CorrRej",262,"0","PW","english",2,NA,NA,NA,NA,"nonword",85
"172","C59","English",44,"Ficetea","LeftArrow",2.63972091674805,0,"FalseAlarm",267,"0","PW","english",2,NA,NA,NA,NA,"nonword",120
"173","C59","English",146,"Subraffe","RightArrow",2.34984803199768,1,"CorrRej",262,"0","PW","english",2,NA,NA,NA,NA,"nonword",135
"174","C59","English",51,"Gladay","RightArrow",2.20057606697083,1,"CorrRej",262,"0","PW","english",2,NA,NA,NA,NA,"nonword",160
"175","C59","English",29,"Courtber","RightArrow",3.66127395629883,1,"CorrRej",262,"0","PW","english",2,NA,NA,NA,NA,"nonword",170
"176","C59","English",74,"Memem","RightArrow",3.36691999435425,1,"CorrRej",262,"0","PW","english",2,NA,NA,NA,NA,"nonword",172
"177","C61","German",32,"Essig","LeftArrow",2.26660418510437,1,"Hit",160,"1","LF","german",2,NA,NA,NA,NA,"word",172
"178","C61","Switch",NA,"Carftbeat","RightArrow",3.71783804893494,1,"p_p_crj",319,"0",NA,"nonword",2,"P","NWNW",NA,NA,"nonword",424
"179","C62","German",41,"Freitag","LeftArrow",9.25303196907043,1,"Hit",161,"1","HF","german",2,NA,NA,NA,NA,"word",1
"180","C62","German",33,"Fagott","LeftArrow",2.78374695777893,1,"Hit",160,"1","LF","german",2,NA,NA,NA,NA,"word",22
"181","C62","German",77,"Mannleis","RightArrow",2.14532995223999,1,"CorrRej",162,"0","PW","german",2,NA,NA,NA,NA,"nonword",29
"182","C62","German",42,"Frontum","LeftArrow",4.18050384521484,0,"FalseAlarm",167,"0","PW","german",2,NA,NA,NA,NA,"nonword",143
"183","C62","English",161,"Trylob","RightArrow",2.06200885772705,1,"CorrRej",262,"0","PW","english",2,NA,NA,NA,NA,"nonword",1
"184","C62","English",45,"Fortmel","RightArrow",2.50646114349365,1,"CorrRej",262,"0","PW","english",2,NA,NA,NA,NA,"nonword",21
"185","C62","English",163,"Turden","RightArrow",2.11009907722473,1,"CorrRej",262,"0","PW","english",2,NA,NA,NA,NA,"nonword",28
"186","C62","English",17,"Cansmith","LeftArrow",2.59489917755127,0,"FalseAlarm",267,"0","PW","english",2,NA,NA,NA,NA,"nonword",43
"187","C62","English",106,"Picpan","LeftArrow",3.07613086700439,0,"FalseAlarm",267,"0","PW","english",2,NA,NA,NA,NA,"nonword",51
"188","C62","English",20,"Cheetah","RightArrow",2.05593800544739,0,"Missing",265,"1","LF","english",2,NA,NA,NA,NA,"word",55
"189","C62","English",137,"Siberg","RightArrow",3.84671306610107,1,"CorrRej",262,"0","PW","english",2,NA,NA,NA,NA,"nonword",158
"190","C62","Switch",NA,"Beetroot","LeftArrow",3.49574899673462,1,"d_e_hit",312,"1",NA,"english",2,"E","GE",1,NA,"word",32
"191","C62","Switch",NA,"Almond","RightArrow",3.96346402168274,0,"e_e_miss",325,"1",NA,"english",2,"E","EE",NA,NA,"word",48
"192","C62","Switch",NA,"Skatwrest","RightArrow",2.51131796836853,1,"d_p_crj",313,"0",NA,"nonword",2,"P","GNW",NA,NA,"nonword",50
"193","C62","Switch",NA,"Rabmod","RightArrow",2.50620698928833,1,"d_p_crj",313,"0",NA,"nonword",2,"P","GNW",NA,NA,"nonword",59
"194","C62","Switch",NA,"Primock","RightArrow",2.33868885040283,1,"p_p_crj",319,"0",NA,"nonword",2,"P","NWNW",NA,NA,"nonword",60
"195","C62","Switch",NA,"Slipdol","LeftArrow",2.16953206062317,0,"p_p_fa",329,"0",NA,"nonword",2,"P","NWNW",NA,NA,"nonword",64
"196","C62","Switch",NA,"Ruler","LeftArrow",2.22477078437805,1,"p_e_hit",318,"1",NA,"english",2,"E","NWE",NA,NA,"word",90
"197","C62","Switch",NA,"Petpea","RightArrow",3.93832111358643,1,"e_p_crj",316,"0",NA,"nonword",2,"P","ENW",NA,NA,"nonword",94
"198","C62","Switch",NA,"Sichtglib","RightArrow",2.13985395431519,1,"d_p_crj",313,"0",NA,"nonword",2,"P","GNW",NA,NA,"nonword",101
"199","C62","Switch",NA,"Chapel","LeftArrow",4.88129186630249,1,"e_e_hit",315,"1",NA,"english",2,"E","EE",NA,NA,"word",109
"200","C62","Switch",NA,"Schalgenz","RightArrow",2.23516798019409,1,"p_p_crj",319,"0",NA,"nonword",2,"P","NWNW",NA,NA,"nonword",113
"201","C62","Switch",NA,"Saucepan","LeftArrow",2.4885790348053,1,"d_e_hit",312,"1",NA,"english",2,"E","GE",1,NA,"word",115
"202","C62","Switch",NA,"Pigmal","RightArrow",3.81012392044067,1,"d_p_crj",313,"0",NA,"nonword",2,"P","GNW",NA,NA,"nonword",117
"203","C62","Switch",NA,"Anrobe","RightArrow",3.21524214744568,1,"e_p_crj",316,"0",NA,"nonword",2,"P","ENW",NA,NA,"nonword",119
"204","C62","Switch",NA,"Tachret","RightArrow",2.21717810630798,1,"p_p_crj",319,"0",NA,"nonword",2,"P","NWNW",NA,NA,"nonword",128
"205","C62","Switch",NA,"Traudat","RightArrow",2.33585906028748,1,"p_p_crj",319,"0",NA,"nonword",2,"P","NWNW",NA,NA,"nonword",129
"206","C62","Switch",NA,"Plantmus","LeftArrow",2.87676119804382,0,"p_p_fa",329,"0",NA,"nonword",2,"P","NWNW",NA,NA,"nonword",136
"207","C62","Switch",NA,"Waistair","RightArrow",5.10162591934204,1,"d_p_crj",313,"0",NA,"nonword",2,"P","GNW",NA,NA,"nonword",158
"208","C62","Switch",NA,"Beetbal","RightArrow",2.23783588409424,1,"p_p_crj",319,"0",NA,"nonword",2,"P","NWNW",NA,NA,"nonword",159
"209","C62","Switch",NA,"Monrot","RightArrow",5.4931788444519,1,"e_p_crj",316,"0",NA,"nonword",2,"P","ENW",NA,NA,"nonword",175
"210","C62","Switch",NA,"Trolley","LeftArrow",3.14745998382568,1,"d_e_hit",312,"1",NA,"english",2,"E","GE",1,NA,"word",178
"211","C62","Switch",NA,"Wadbard","RightArrow",2.08503603935242,1,"p_p_crj",319,"0",NA,"nonword",2,"P","NWNW",NA,NA,"nonword",202
"212","C62","Switch",NA,"Bladrad","RightArrow",3.12814497947693,1,"d_p_crj",313,"0",NA,"nonword",2,"P","GNW",NA,NA,"nonword",204
"213","C62","Switch",NA,"Stockmock","RightArrow",2.75351190567017,1,"d_p_crj",313,"0",NA,"nonword",2,"P","GNW",NA,NA,"nonword",209
"214","C62","Switch",NA,"Fiddle","RightArrow",5.32597088813782,0,"d_e_miss",322,"1",NA,"english",2,"E","GE",1,NA,"word",218
"215","C62","Switch",NA,"Bobok","RightArrow",2.16006207466125,1,"d_p_crj",313,"0",NA,"nonword",2,"P","GNW",NA,NA,"nonword",224
"216","C62","Switch",NA,"Schemel","LeftArrow",2.20023393630981,1,"d_d_hit",311,"1",NA,"german",2,"D","GG",NA,NA,"word",226
"217","C62","Switch",NA,"Linen","LeftArrow",2.24648594856262,1,"e_e_hit",315,"1",NA,"english",2,"E","EE",NA,NA,"word",228
"218","C62","Switch",NA,"Wildhar","RightArrow",2.42751002311707,1,"d_p_crj",313,"0",NA,"nonword",2,"P","GNW",NA,NA,"nonword",241
"219","C62","Switch",NA,"Pliers","RightArrow",6.44162797927856,0,"d_e_miss",322,"1",NA,"english",2,"E","GE",1,NA,"word",256
"220","C62","Switch",NA,"Pfanstik","RightArrow",2.94437313079834,1,"p_p_crj",319,"0",NA,"nonword",2,"P","NWNW",NA,NA,"nonword",263
"221","C62","Switch",NA,"Balcraft","RightArrow",2.5110969543457,1,"p_p_crj",319,"0",NA,"nonword",2,"P","NWNW",NA,NA,"nonword",264
"222","C62","Switch",NA,"Rotkel","LeftArrow",2.30654907226563,0,"e_p_fa",326,"0",NA,"nonword",2,"P","ENW",NA,NA,"nonword",276
"223","C62","Switch",NA,"Floodbon","RightArrow",2.56565809249878,1,"p_p_crj",319,"0",NA,"nonword",2,"P","NWNW",NA,NA,"nonword",281
"224","C62","Switch",NA,"Lehmo","RightArrow",2.329185962677,1,"p_p_crj",319,"0",NA,"nonword",2,"P","NWNW",NA,NA,"nonword",286
"225","C62","Switch",NA,"Trettle","RightArrow",2.32130002975464,1,"p_p_crj",319,"0",NA,"nonword",2,"P","NWNW",NA,NA,"nonword",287
"226","C62","Switch",NA,"Clorsot","RightArrow",2.98704481124878,1,"d_p_crj",313,"0",NA,"nonword",2,"P","GNW",NA,NA,"nonword",306
"227","C62","Switch",NA,"Waistcoat","LeftArrow",2.62658500671387,1,"p_e_hit",318,"1",NA,"english",2,"E","NWE",NA,NA,"word",317
"228","C62","Switch",NA,"Showgren","RightArrow",2.67327404022217,1,"d_p_crj",313,"0",NA,"nonword",2,"P","GNW",NA,NA,"nonword",319
"229","C62","Switch",NA,"Bluzeug","RightArrow",4.56310606002808,1,"p_p_crj",319,"0",NA,"nonword",2,"P","NWNW",NA,NA,"nonword",320
"230","C62","Switch",NA,"Cardboard","LeftArrow",2.88176894187927,1,"p_e_hit",318,"1",NA,"english",2,"E","NWE",NA,NA,"word",321
"231","C62","Switch",NA,"Mortist","RightArrow",3.41556286811829,1,"d_p_crj",313,"0",NA,"nonword",2,"P","GNW",NA,NA,"nonword",332
"232","C62","Switch",NA,"Oldress","RightArrow",6.55807900428772,1,"p_p_crj",319,"0",NA,"nonword",2,"P","NWNW",NA,NA,"nonword",339
"233","C62","Switch",NA,"Bresteam","RightArrow",2.31696200370789,1,"e_p_crj",316,"0",NA,"nonword",2,"P","ENW",NA,NA,"nonword",343
"234","C62","Switch",NA,"Trumpet","LeftArrow",2.89417600631714,1,"d_e_hit",312,"1",NA,"english",2,"E","GE",1,NA,"word",348
"235","C62","Switch",NA,"Setpea","RightArrow",2.34182214736938,1,"p_p_crj",319,"0",NA,"nonword",2,"P","NWNW",NA,NA,"nonword",351
"236","C62","Switch",NA,"Mannel","RightArrow",4.7606360912323,1,"p_p_crj",319,"0",NA,"nonword",2,"P","NWNW",NA,NA,"nonword",352
"237","C62","Switch",NA,"Silearth","LeftArrow",2.86111903190613,0,"p_p_fa",329,"0",NA,"nonword",2,"P","NWNW",NA,NA,"nonword",353
"238","C62","Switch",NA,"Surfree","RightArrow",5.17774295806885,1,"p_p_crj",319,"0",NA,"nonword",2,"P","NWNW",NA,NA,"nonword",360
"239","C62","Switch",NA,"Ostrich","RightArrow",5.52773094177246,0,"p_e_miss",328,"1",NA,"english",2,"E","NWE",NA,NA,"word",372
"240","C62","Switch",NA,"Peclean","RightArrow",2.45064997673035,1,"d_p_crj",313,"0",NA,"nonword",2,"P","GNW",NA,NA,"nonword",383
"241","C62","Switch",NA,"Cupboard","LeftArrow",2.76345014572144,1,"p_e_hit",318,"1",NA,"english",2,"E","NWE",NA,NA,"word",389
"242","C62","Switch",NA,"Railcar","LeftArrow",3.92909812927246,1,"p_e_hit",318,"1",NA,"english",2,"E","NWE",NA,NA,"word",391
"243","C62","Switch",NA,"Wearlpie","RightArrow",2.29732513427734,1,"p_p_crj",319,"0",NA,"nonword",2,"P","NWNW",NA,NA,"nonword",420
"244","C62","Switch",NA,"Carftbeat","RightArrow",2.64607691764832,1,"p_p_crj",319,"0",NA,"nonword",2,"P","NWNW",NA,NA,"nonword",424
"245","C62","Switch",NA,"Skillet","LeftArrow",4.4649670124054,1,"d_e_hit",312,"1",NA,"english",2,"E","GE",1,NA,"word",462
"246","C62","Switch",NA,"Baune","RightArrow",2.5600471496582,1,"e_p_crj",316,"0",NA,"nonword",2,"P","ENW",NA,NA,"nonword",467
"247","C62","Switch",NA,"Mofa","LeftArrow",2.13948607444763,1,"p_d_hit",317,"1",NA,"german",2,"D","NWG",NA,NA,"word",474
"248","C62","Switch",NA,"Railtrol","RightArrow",2.62926197052002,1,"d_p_crj",313,"0",NA,"nonword",2,"P","GNW",NA,NA,"nonword",476
"249","C63","English",132,"Scissors","LeftArrow",2.09170794487,1,"Hit",260,"1","LF","english",2,NA,NA,NA,NA,"word",98
"250","C63","English",118,"Proture","RightArrow",2.2221531867981,1,"CorrRej",262,"0","PW","english",2,NA,NA,NA,NA,"nonword",127
"251","C63","English",156,"Tactic","RightArrow",2.2556459903717,0,"Missing",265,"1","LF","english",2,NA,NA,NA,NA,"word",131
"252","C63","English",56,"Harcoun","LeftArrow",2.54125785827637,0,"FalseAlarm",267,"0","PW","english",2,NA,NA,NA,NA,"nonword",170
"253","C63","Switch",NA,"Birne","LeftArrow",2.20792508125305,1,"d_d_hit",311,"1",NA,"german",2,"D","GG",NA,NA,"word",177
"254","C63","Switch",NA,"Maukasch","RightArrow",2.06875705718994,1,"d_p_crj",313,"0",NA,"nonword",2,"P","GNW",NA,NA,"nonword",233
"255","C63","Switch",NA,"Spramus","RightArrow",2.08607411384583,1,"d_p_crj",313,"0",NA,"nonword",2,"P","GNW",NA,NA,"nonword",250
"256","C63","Switch",NA,"Baglor","RightArrow",2.02489805221558,1,"p_p_crj",319,"0",NA,"nonword",2,"P","NWNW",NA,NA,"nonword",280
"257","C63","Switch",NA,"Floodbon","RightArrow",2.49015498161316,1,"p_p_crj",319,"0",NA,"nonword",2,"P","NWNW",NA,NA,"nonword",281
"258","C63","Switch",NA,"Chicken","LeftArrow",2.35946321487427,1,"p_e_hit",318,"1",NA,"english",2,"E","NWE",NA,NA,"word",313
"259","C63","Switch",NA,"Freabye","RightArrow",2.13464498519897,1,"p_p_crj",319,"0",NA,"nonword",2,"P","NWNW",NA,NA,"nonword",388
"260","C63","Switch",NA,"Meise","LeftArrow",2.85496687889099,1,"e_d_hit",314,"1",NA,"german",2,"D","EG",NA,1,"word",444
"261","C63","Switch",NA,"Railtrol","LeftArrow",2.00265097618103,0,"d_p_fa",323,"0",NA,"nonword",2,"P","GNW",NA,NA,"nonword",476
"262","C64","German",62,"Klempheit","LeftArrow",3.23526191711426,0,"FalseAlarm",167,"0","PW","german",2,NA,NA,NA,NA,"nonword",5
"263","C64","German",155,"Tumbel","RightArrow",3.90785789489746,1,"CorrRej",162,"0","PW","german",2,NA,NA,NA,NA,"nonword",7
"264","C64","German",135,"Splitbus","LeftArrow",5.17938804626465,0,"FalseAlarm",167,"0","PW","german",2,NA,NA,NA,NA,"nonword",10
"265","C64","German",19,"Bocher","RightArrow",3.83218908309937,1,"CorrRej",162,"0","PW","german",2,NA,NA,NA,NA,"nonword",14
"266","C64","German",49,"Glaser","LeftArrow",2.94327998161316,1,"Hit",160,"1","LF","german",2,NA,NA,NA,NA,"word",20
"267","C64","German",5,"Ansprit","RightArrow",2.67498207092285,1,"CorrRej",162,"0","PW","german",2,NA,NA,NA,NA,"nonword",23
"268","C64","German",104,"Pfeimass","RightArrow",2.24600100517273,1,"CorrRej",162,"0","PW","german",2,NA,NA,NA,NA,"nonword",39
"269","C64","German",112,"Rauzept","RightArrow",2.23025512695313,1,"CorrRej",162,"0","PW","german",2,NA,NA,NA,NA,"nonword",40
"270","C64","German",136,"Splitschaft","RightArrow",2.43336892127991,1,"CorrRej",162,"0","PW","german",2,NA,NA,NA,NA,"nonword",63
"271","C64","German",18,"Bilzent","RightArrow",2.22586607933044,1,"CorrRej",162,"0","PW","german",2,NA,NA,NA,NA,"nonword",67
"272","C64","German",64,"Klemptur","RightArrow",2.45857405662537,1,"CorrRej",162,"0","PW","german",2,NA,NA,NA,NA,"nonword",83
"273","C64","German",126,"Schratoch","RightArrow",2.65379786491394,1,"CorrRej",162,"0","PW","german",2,NA,NA,NA,NA,"nonword",95
"274","C64","German",146,"Tagde","RightArrow",2.63727903366089,1,"CorrRej",162,"0","PW","german",2,NA,NA,NA,NA,"nonword",112
"275","C64","German",170,"Woche","LeftArrow",2.53613209724426,1,"Hit",161,"1","HF","german",2,NA,NA,NA,NA,"word",120
"276","C64","German",141,"Stabisch","RightArrow",5.5193989276886,1,"CorrRej",162,"0","PW","german",2,NA,NA,NA,NA,"nonword",129
"277","C64","German",99,"Nordmor","RightArrow",2.44164800643921,1,"CorrRej",162,"0","PW","german",2,NA,NA,NA,NA,"nonword",136
"278","C64","German",13,"Beitee","LeftArrow",3.20040893554688,0,"FalseAlarm",167,"0","PW","german",2,NA,NA,NA,NA,"nonword",141
"279","C64","German",119,"Schaftzan","RightArrow",2.55112385749817,1,"CorrRej",162,"0","PW","german",2,NA,NA,NA,NA,"nonword",146
"280","C64","German",22,"Chirurg","LeftArrow",3.74469995498657,1,"Hit",160,"1","LF","german",2,NA,NA,NA,NA,"word",151
"281","C64","German",133,"Sigwas","RightArrow",2.72320199012756,1,"CorrRej",162,"0","PW","german",2,NA,NA,NA,NA,"nonword",162
"282","C64","German",107,"Pipass","RightArrow",2.06711912155151,1,"CorrRej",162,"0","PW","german",2,NA,NA,NA,NA,"nonword",171
"283","C64","English",51,"Gladay","RightArrow",2.02985787391663,1,"CorrRej",262,"0","PW","english",2,NA,NA,NA,NA,"nonword",2
"284","C64","English",12,"Butler","LeftArrow",2.77879500389099,1,"Hit",260,"1","LF","english",2,NA,NA,NA,NA,"word",4
"285","C64","English",20,"Cheetah","RightArrow",2.16918301582336,0,"Missing",265,"1","LF","english",2,NA,NA,NA,NA,"word",30
"286","C64","English",77,"Methcon","LeftArrow",2.96743512153625,0,"FalseAlarm",267,"0","PW","english",2,NA,NA,NA,NA,"nonword",33
"287","C64","English",105,"Petal","LeftArrow",2.55275917053223,1,"Hit",260,"1","LF","english",2,NA,NA,NA,NA,"word",67
"288","C64","English",26,"Councher","RightArrow",2.73025703430176,1,"CorrRej",262,"0","PW","english",2,NA,NA,NA,NA,"nonword",129
"289","C64","English",63,"Jectlet","RightArrow",3.21990704536438,1,"CorrRej",262,"0","PW","english",2,NA,NA,NA,NA,"nonword",131
"290","C64","English",46,"Forweath","RightArrow",2.25543212890625,1,"CorrRej",262,"0","PW","english",2,NA,NA,NA,NA,"nonword",143
"291","C64","Switch",NA,"Scrashle","RightArrow",3.0576798915863,1,"p_p_crj",319,"0",NA,"nonword",2,"P","NWNW",NA,NA,"nonword",1
"292","C64","Switch",NA,"Ankle","LeftArrow",2.64964389801025,1,"p_e_hit",318,"1",NA,"english",2,"E","NWE",NA,NA,"word",11
"293","C64","Switch",NA,"Clinic","LeftArrow",2.21609807014465,1,"d_e_hit",312,"1",NA,"english",2,"E","GE",1,NA,"word",20
"294","C64","Switch",NA,"Schraube","LeftArrow",2.12857508659363,1,"e_d_hit",314,"1",NA,"german",2,"D","EG",NA,1,"word",75
"295","C64","Switch",NA,"Saucepan","LeftArrow",2.10880899429321,1,"d_e_hit",312,"1",NA,"english",2,"E","GE",1,NA,"word",115
"296","C64","Switch",NA,"Tachret","RightArrow",2.88634300231934,1,"p_p_crj",319,"0",NA,"nonword",2,"P","NWNW",NA,NA,"nonword",128
"297","C64","Switch",NA,"Radish","RightArrow",3.24552702903748,0,"d_e_miss",322,"1",NA,"english",2,"E","GE",1,NA,"word",151
"298","C64","Switch",NA,"Nashorn","LeftArrow",2.25383305549622,1,"p_d_hit",317,"1",NA,"german",2,"D","NWG",NA,NA,"word",176
"299","C64","Switch",NA,"Wilzlen","RightArrow",2.23029208183289,1,"e_p_crj",316,"0",NA,"nonword",2,"P","ENW",NA,NA,"nonword",181
"300","C64","Switch",NA,"Ladder","LeftArrow",4.33131814002991,1,"p_e_hit",318,"1",NA,"english",2,"E","NWE",NA,NA,"word",239
"301","C64","Switch",NA,"Scherad","RightArrow",2.06310606002808,1,"d_p_crj",313,"0",NA,"nonword",2,"P","GNW",NA,NA,"nonword",285
"302","C64","Switch",NA,"Trombone","LeftArrow",4.79157280921936,1,"p_e_hit",318,"1",NA,"english",2,"E","NWE",NA,NA,"word",288
"303","C64","Switch",NA,"Ballad","LeftArrow",2.07191491127014,1,"d_e_hit",312,"1",NA,"english",2,"E","GE",1,NA,"word",308
"304","C64","Switch",NA,"Bluzeug","RightArrow",2.19153022766113,1,"p_p_crj",319,"0",NA,"nonword",2,"P","NWNW",NA,NA,"nonword",320
"305","C64","Switch",NA,"Oldress","RightArrow",2.1148669719696,1,"p_p_crj",319,"0",NA,"nonword",2,"P","NWNW",NA,NA,"nonword",339
"306","C64","Switch",NA,"Mannel","RightArrow",3.82947611808777,1,"p_p_crj",319,"0",NA,"nonword",2,"P","NWNW",NA,NA,"nonword",352
"307","C64","Switch",NA,"Albage","RightArrow",2.00782084465027,1,"e_p_crj",316,"0",NA,"nonword",2,"P","ENW",NA,NA,"nonword",359
"308","C64","Switch",NA,"Schrauschi","RightArrow",4.7426290512085,1,"d_p_crj",313,"0",NA,"nonword",2,"P","GNW",NA,NA,"nonword",404
"309","C64","Switch",NA,"Winbut","RightArrow",2.73031711578369,1,"d_p_crj",313,"0",NA,"nonword",2,"P","GNW",NA,NA,"nonword",410
"310","C64","Switch",NA,"Surgeon","LeftArrow",3.09787702560425,1,"e_e_hit",315,"1",NA,"english",2,"E","EE",NA,NA,"word",417
"311","C64","Switch",NA,"Fibre","RightArrow",2.10011005401611,0,"p_e_miss",328,"1",NA,"english",2,"E","NWE",NA,NA,"word",436
"312","C65","German",3,"Altuch","RightArrow",3.72332310676575,1,"CorrRej",162,"0","PW","german",2,NA,NA,NA,NA,"nonword",141
"313","C65","German",64,"Klemptur","RightArrow",2.17043209075928,1,"CorrRej",162,"0","PW","german",2,NA,NA,NA,NA,"nonword",156
"314","C65","German",19,"Bocher","RightArrow",3.16188502311707,1,"CorrRej",162,"0","PW","german",2,NA,NA,NA,NA,"nonword",169
"315","C65","English",5,"Basil","RightArrow",2.74474382400513,0,"Missing",265,"1","LF","english",2,NA,NA,NA,NA,"word",6
"316","C65","English",147,"Subson","RightArrow",3.26526308059692,1,"CorrRej",262,"0","PW","english",2,NA,NA,NA,NA,"nonword",37
"317","C65","English",86,"Muslin","RightArrow",2.19916415214539,0,"Missing",265,"1","LF","english",2,NA,NA,NA,NA,"word",46
"318","C65","English",82,"Monsoon","LeftArrow",2.39680099487305,1,"Hit",260,"1","LF","english",2,NA,NA,NA,NA,"word",56
"319","C65","English",53,"Glavel","RightArrow",2.49489498138428,1,"CorrRej",262,"0","PW","english",2,NA,NA,NA,NA,"nonword",57
"320","C65","English",46,"Forweath","LeftArrow",2.04866003990173,0,"FalseAlarm",267,"0","PW","english",2,NA,NA,NA,NA,"nonword",63
"321","C65","English",180,"Winture","RightArrow",2.17847299575806,1,"CorrRej",262,"0","PW","english",2,NA,NA,NA,NA,"nonword",73
"322","C65","English",114,"Power","LeftArrow",4.07574200630188,1,"Hit",261,"1","HF","english",2,NA,NA,NA,NA,"word",75
"323","C65","English",148,"Sultple","RightArrow",2.06982707977295,1,"CorrRej",262,"0","PW","english",2,NA,NA,NA,NA,"nonword",112
"324","C65","English",63,"Jectlet","RightArrow",3.1865861415863,1,"CorrRej",262,"0","PW","english",2,NA,NA,NA,NA,"nonword",127
"325","C65","English",143,"Story","LeftArrow",2.0308940410614,1,"Hit",261,"1","HF","english",2,NA,NA,NA,NA,"word",130
"326","C65","English",99,"Ozard","LeftArrow",5.09406495094299,0,"FalseAlarm",267,"0","PW","english",2,NA,NA,NA,NA,"nonword",142
"327","C65","English",2,"Bagduct","RightArrow",2.18561482429504,1,"CorrRej",262,"0","PW","english",2,NA,NA,NA,NA,"nonword",159
"328","C65","Switch",NA,"Sonchain","RightArrow",2.68299698829651,1,"d_p_crj",313,"0",NA,"nonword",2,"P","GNW",NA,NA,"nonword",10
"329","C65","Switch",NA,"Petpea","RightArrow",2.25961208343506,1,"e_p_crj",316,"0",NA,"nonword",2,"P","ENW",NA,NA,"nonword",94
"330","C65","Switch",NA,"Zwieglet","RightArrow",2.24043011665344,1,"d_p_crj",313,"0",NA,"nonword",2,"P","GNW",NA,NA,"nonword",111
"331","C65","Switch",NA,"Pfirsich","LeftArrow",2.26469898223877,1,"e_d_hit",314,"1",NA,"german",2,"D","EG",NA,1,"word",116
"332","C65","Switch",NA,"Forehead","LeftArrow",2.32269191741943,1,"e_e_hit",315,"1",NA,"english",2,"E","EE",NA,NA,"word",174
"333","C65","Switch",NA,"Birne","LeftArrow",3.36955714225769,1,"d_d_hit",311,"1",NA,"german",2,"D","GG",NA,NA,"word",177
"334","C65","Switch",NA,"Gabel","LeftArrow",2.2272641658783,1,"e_d_hit",314,"1",NA,"german",2,"D","EG",NA,1,"word",179
"335","C65","Switch",NA,"Cregar","RightArrow",3.92256712913513,1,"p_p_crj",319,"0",NA,"nonword",2,"P","NWNW",NA,NA,"nonword",185
"336","C65","Switch",NA,"Wildhar","RightArrow",2.37650895118713,1,"d_p_crj",313,"0",NA,"nonword",2,"P","GNW",NA,NA,"nonword",241
"337","C65","Switch",NA,"Currant","LeftArrow",3.55961418151855,1,"p_e_hit",318,"1",NA,"english",2,"E","NWE",NA,NA,"word",272
"338","C65","Switch",NA,"Baglor","RightArrow",2.30484080314636,1,"p_p_crj",319,"0",NA,"nonword",2,"P","NWNW",NA,NA,"nonword",280
"339","C65","Switch",NA,"Bowling","LeftArrow",2.12765717506409,1,"e_e_hit",315,"1",NA,"english",2,"E","EE",NA,NA,"word",289
"340","C65","Switch",NA,"Fallze","RightArrow",3.18010091781616,1,"d_p_crj",313,"0",NA,"nonword",2,"P","GNW",NA,NA,"nonword",297
"341","C65","Switch",NA,"Drawer","LeftArrow",2.64670705795288,1,"p_e_hit",318,"1",NA,"english",2,"E","NWE",NA,NA,"word",300
"342","C65","Switch",NA,"Wolfram","LeftArrow",2.942302942276,1,"p_d_hit",317,"1",NA,"german",2,"D","NWG",NA,NA,"word",311
"343","C65","Switch",NA,"Fenkohl","LeftArrow",3.2112500667572,0,"d_p_fa",323,"0",NA,"nonword",2,"P","GNW",NA,NA,"nonword",312
"344","C65","Switch",NA,"Waistcoat","LeftArrow",4.44774222373962,1,"p_e_hit",318,"1",NA,"english",2,"E","NWE",NA,NA,"word",317
"345","C65","Switch",NA,"Chestnut","LeftArrow",2.21701717376709,1,"d_e_hit",312,"1",NA,"english",2,"E","GE",1,NA,"word",337
"346","C65","Switch",NA,"Tailor","RightArrow",2.68185997009277,0,"p_e_miss",328,"1",NA,"english",2,"E","NWE",NA,NA,"word",367
"347","C65","Switch",NA,"Berry","LeftArrow",2.16737604141235,1,"e_e_hit",315,"1",NA,"english",2,"E","EE",NA,NA,"word",377
"348","C65","Switch",NA,"Lunge","LeftArrow",4.23783111572266,1,"e_d_hit",314,"1",NA,"german",2,"D","EG",NA,1,"word",403
"349","C65","Switch",NA,"Meise","LeftArrow",3.91920304298401,1,"e_d_hit",314,"1",NA,"german",2,"D","EG",NA,1,"word",444
"350","C66","English",92,"Neighbour","RightArrow",2.39722681045532,0,"Missing",265,"1","LF","english",2,NA,NA,NA,NA,"word",3
"351","C66","Switch",NA,"Copper","LeftArrow",2.96430897712708,1,"p_e_hit",318,"1",NA,"english",2,"E","NWE",NA,NA,"word",169
"352","C66","Switch",NA,"Widder","LeftArrow",2.07986903190613,1,"p_d_hit",317,"1",NA,"german",2,"D","NWG",NA,NA,"word",186
"353","C66","Switch",NA,"Uhu","LeftArrow",2.77599787712097,1,"p_d_hit",317,"1",NA,"german",2,"D","NWG",NA,NA,"word",249
"354","C66","Switch",NA,"Waistcoat","RightArrow",2.4949848651886,0,"p_e_miss",328,"1",NA,"english",2,"E","NWE",NA,NA,"word",317
"355","C66","Switch",NA,"Bluzeug","RightArrow",2.61063599586487,1,"p_p_crj",319,"0",NA,"nonword",2,"P","NWNW",NA,NA,"nonword",320
"356","C66","Switch",NA,"Cardboard","LeftArrow",2.6925790309906,1,"p_e_hit",318,"1",NA,"english",2,"E","NWE",NA,NA,"word",321
"357","C66","Switch",NA,"Autumn","RightArrow",3.02772307395935,0,"d_e_miss",322,"1",NA,"english",2,"E","GE",1,NA,"word",355
"358","C66","Switch",NA,"Kaki","LeftArrow",2.08444786071777,1,"e_d_hit",314,"1",NA,"german",2,"D","EG",NA,1,"word",357
"359","C66","Switch",NA,"Caktard","LeftArrow",2.44808602333069,0,"e_p_fa",326,"0",NA,"nonword",2,"P","ENW",NA,NA,"nonword",369
"360","C66","Switch",NA,"Vieruck","RightArrow",2.05031490325928,1,"e_p_crj",316,"0",NA,"nonword",2,"P","ENW",NA,NA,"nonword",375
"361","C67","German",15,"Benschaft","RightArrow",3.06795597076416,1,"CorrRej",162,"0","PW","german",2,NA,NA,NA,NA,"nonword",1
"362","C67","German",147,"Teiben","RightArrow",2.83986806869507,1,"CorrRej",162,"0","PW","german",2,NA,NA,NA,NA,"nonword",2
"363","C67","German",119,"Schaftzan","RightArrow",3.35090804100037,1,"CorrRej",162,"0","PW","german",2,NA,NA,NA,NA,"nonword",10
"364","C67","German",129,"Seikon","RightArrow",4.38606405258179,1,"CorrRej",162,"0","PW","german",2,NA,NA,NA,NA,"nonword",15
"365","C67","German",5,"Ansprit","RightArrow",2.52115178108215,1,"CorrRej",162,"0","PW","german",2,NA,NA,NA,NA,"nonword",16
"366","C67","German",27,"Eisrau","RightArrow",3.14951300621033,1,"CorrRej",162,"0","PW","german",2,NA,NA,NA,NA,"nonword",36
"367","C67","German",96,"Neraf","RightArrow",2.07256484031677,1,"CorrRej",162,"0","PW","german",2,NA,NA,NA,NA,"nonword",58
"368","C67","German",82,"Mele","RightArrow",2.13101005554199,1,"CorrRej",162,"0","PW","german",2,NA,NA,NA,NA,"nonword",78
"369","C67","German",19,"Bocher","RightArrow",2.556636095047,1,"CorrRej",162,"0","PW","german",2,NA,NA,NA,NA,"nonword",82
"370","C67","German",174,"Zeiben","RightArrow",3.0720100402832,1,"CorrRej",162,"0","PW","german",2,NA,NA,NA,NA,"nonword",91
"371","C67","German",117,"Sache","LeftArrow",2.34437704086304,1,"Hit",161,"1","HF","german",2,NA,NA,NA,NA,"word",98
"372","C67","German",166,"Weise","LeftArrow",2.15862083435059,1,"Hit",161,"1","HF","german",2,NA,NA,NA,NA,"word",103
"373","C67","German",81,"Mehrheit","LeftArrow",2.23767900466919,1,"Hit",161,"1","HF","german",2,NA,NA,NA,NA,"word",117
"374","C67","German",141,"Stabisch","RightArrow",2.86012101173401,1,"CorrRej",162,"0","PW","german",2,NA,NA,NA,NA,"nonword",139
"375","C67","German",130,"Seileu","RightArrow",2.39566612243652,1,"CorrRej",162,"0","PW","german",2,NA,NA,NA,NA,"nonword",157
"376","C67","German",106,"Pinnwand","LeftArrow",3.71342301368713,1,"Hit",160,"1","LF","german",2,NA,NA,NA,NA,"word",166
"377","C67","English",83,"Moonlight","LeftArrow",5.33290696144104,1,"Hit",260,"1","LF","english",2,NA,NA,NA,NA,"word",7
"378","C67","English",20,"Cheetah","LeftArrow",3.66322803497314,1,"Hit",260,"1","LF","english",2,NA,NA,NA,NA,"word",8
"379","C67","English",137,"Siberg","RightArrow",3.93499112129211,1,"CorrRej",262,"0","PW","english",2,NA,NA,NA,NA,"nonword",20
"380","C67","English",8,"Berglue","RightArrow",2.41451096534729,1,"CorrRej",262,"0","PW","english",2,NA,NA,NA,NA,"nonword",28
"381","C67","English",55,"Harbour","RightArrow",3.75849914550781,0,"Missing",265,"1","LF","english",2,NA,NA,NA,NA,"word",29
"382","C67","English",79,"Minute","LeftArrow",8.43932700157166,1,"Hit",261,"1","HF","english",2,NA,NA,NA,NA,"word",30
"383","C67","English",30,"Courtroom","LeftArrow",2.19214797019958,1,"Hit",260,"1","LF","english",2,NA,NA,NA,NA,"word",33
"384","C67","English",108,"Player","LeftArrow",2.53286981582642,1,"Hit",261,"1","HF","english",2,NA,NA,NA,NA,"word",36
"385","C67","English",162,"Trypost","RightArrow",5.7243390083313,1,"CorrRej",262,"0","PW","english",2,NA,NA,NA,NA,"nonword",84
"386","C67","English",60,"Iceberg","LeftArrow",5.17801117897034,1,"Hit",260,"1","LF","english",2,NA,NA,NA,NA,"word",85
"387","C67","English",50,"Glacier","LeftArrow",2.25836300849915,1,"Hit",260,"1","LF","english",2,NA,NA,NA,NA,"word",93
"388","C67","English",21,"Cherage","RightArrow",4.14876103401184,1,"CorrRej",262,"0","PW","english",2,NA,NA,NA,NA,"nonword",97
"389","C67","English",17,"Cansmith","RightArrow",3.49668002128601,1,"CorrRej",262,"0","PW","english",2,NA,NA,NA,NA,"nonword",99
"390","C67","English",172,"Wedding","LeftArrow",2.40194511413574,1,"Hit",261,"1","HF","english",2,NA,NA,NA,NA,"word",103
"391","C67","English",151,"Sumting","RightArrow",2.14995408058167,1,"CorrRej",262,"0","PW","english",2,NA,NA,NA,NA,"nonword",105
"392","C67","English",23,"Cockroach","LeftArrow",4.13526701927185,1,"Hit",260,"1","LF","english",2,NA,NA,NA,NA,"word",109
"393","C67","English",37,"Effort","LeftArrow",2.57988381385803,1,"Hit",261,"1","HF","english",2,NA,NA,NA,NA,"word",138
"394","C67","English",12,"Butler","LeftArrow",2.44118690490723,1,"Hit",260,"1","LF","english",2,NA,NA,NA,NA,"word",140
"395","C67","English",40,"Eyelid","LeftArrow",9.76329493522644,1,"Hit",260,"1","LF","english",2,NA,NA,NA,NA,"word",144
"396","C67","English",107,"Picture","LeftArrow",4.84547114372253,1,"Hit",261,"1","HF","english",2,NA,NA,NA,NA,"word",147
"397","C67","English",161,"Trylob","RightArrow",7.13115119934082,1,"CorrRej",262,"0","PW","english",2,NA,NA,NA,NA,"nonword",173
"398","C67","English",56,"Harcoun","RightArrow",3.0947790145874,1,"CorrRej",262,"0","PW","english",2,NA,NA,NA,NA,"nonword",176
"399","C67","English",70,"Lobster","LeftArrow",6.89608192443848,1,"Hit",260,"1","LF","english",2,NA,NA,NA,NA,"word",177
"400","C67","Switch",NA,"Derfal","LeftArrow",0.290204763412476,0,"d_p_fa",323,"0",NA,"nonword",2,"P","GNW",NA,NA,"nonword",316
"401","C67","Switch",NA,"Scrashle","RightArrow",2.258220911026,1,"p_p_crj",319,"0",NA,"nonword",2,"P","NWNW",NA,NA,"nonword",1
"402","C67","Switch",NA,"Cornet","LeftArrow",2.33708620071411,1,"d_e_hit",312,"1",NA,"english",2,"E","GE",1,NA,"word",3
"403","C67","Switch",NA,"Upbeat","LeftArrow",2.53133797645569,1,"e_e_hit",315,"1",NA,"english",2,"E","EE",NA,NA,"word",7
"404","C67","Switch",NA,"Sonchain","RightArrow",2.98147487640381,1,"d_p_crj",313,"0",NA,"nonword",2,"P","GNW",NA,NA,"nonword",10
"405","C67","Switch",NA,"Copair","RightArrow",2.01404786109924,1,"e_p_crj",316,"0",NA,"nonword",2,"P","ENW",NA,NA,"nonword",21
"406","C67","Switch",NA,"Ruler","LeftArrow",2.11522507667542,1,"p_e_hit",318,"1",NA,"english",2,"E","NWE",NA,NA,"word",90
"407","C67","Switch",NA,"Coatmet","RightArrow",5.36165595054626,1,"e_p_crj",316,"0",NA,"nonword",2,"P","ENW",NA,NA,"nonword",138
"408","C67","Switch",NA,"Nerla","RightArrow",3.96669793128967,1,"p_p_crj",319,"0",NA,"nonword",2,"P","NWNW",NA,NA,"nonword",220
"409","C67","Switch",NA,"Kessel","LeftArrow",2.46955704689026,1,"p_d_hit",317,"1",NA,"german",2,"D","NWG",NA,NA,"word",296
"410","C67","Switch",NA,"Garlic","LeftArrow",3.19054889678955,1,"p_e_hit",318,"1",NA,"english",2,"E","NWE",NA,NA,"word",304
"411","C67","Switch",NA,"Clorsot","RightArrow",2.42416310310364,1,"d_p_crj",313,"0",NA,"nonword",2,"P","GNW",NA,NA,"nonword",306
"412","C67","Switch",NA,"Ballad","RightArrow",2.23296499252319,0,"d_e_miss",322,"1",NA,"english",2,"E","GE",1,NA,"word",308
"413","C67","Switch",NA,"Schautich","RightArrow",2.30351114273071,1,"e_p_crj",316,"0",NA,"nonword",2,"P","ENW",NA,NA,"nonword",309
"414","C67","Switch",NA,"Truad","RightArrow",3.00808691978455,1,"p_p_crj",319,"0",NA,"nonword",2,"P","NWNW",NA,NA,"nonword",310
"415","C67","Switch",NA,"Aircraft","LeftArrow",2.6289849281311,1,"e_e_hit",315,"1",NA,"english",2,"E","EE",NA,NA,"word",326
"416","C67","Switch",NA,"Gauntlet","LeftArrow",5.11634707450867,1,"e_e_hit",315,"1",NA,"english",2,"E","EE",NA,NA,"word",356
"417","C67","Switch",NA,"Skating","LeftArrow",4.30945110321045,1,"e_e_hit",315,"1",NA,"english",2,"E","EE",NA,NA,"word",373
"418","C67","Switch",NA,"Vieruck","RightArrow",2.11582398414612,1,"e_p_crj",316,"0",NA,"nonword",2,"P","ENW",NA,NA,"nonword",375
"419","C67","Switch",NA,"Wetsuit","LeftArrow",3.86497592926025,1,"p_e_hit",318,"1",NA,"english",2,"E","NWE",NA,NA,"word",376
"420","C67","Switch",NA,"Freabye","LeftArrow",6.03547096252441,0,"p_p_fa",329,"0",NA,"nonword",2,"P","NWNW",NA,NA,"nonword",388
"421","C67","Switch",NA,"Tinseg","RightArrow",2.21063303947449,1,"p_p_crj",319,"0",NA,"nonword",2,"P","NWNW",NA,NA,"nonword",395
"422","C67","Switch",NA,"Winbut","RightArrow",2.10460519790649,1,"d_p_crj",313,"0",NA,"nonword",2,"P","GNW",NA,NA,"nonword",410
"423","C67","Switch",NA,"Peacock","LeftArrow",2.18209600448608,1,"p_e_hit",318,"1",NA,"english",2,"E","NWE",NA,NA,"word",425
"424","C67","Switch",NA,"Fibre","LeftArrow",8.40668487548828,1,"p_e_hit",318,"1",NA,"english",2,"E","NWE",NA,NA,"word",436
"425","C67","Switch",NA,"Hiking","LeftArrow",4.23839402198792,1,"e_e_hit",315,"1",NA,"english",2,"E","EE",NA,NA,"word",438
"426","C67","Switch",NA,"Meise","LeftArrow",2.99285292625427,1,"e_d_hit",314,"1",NA,"german",2,"D","EG",NA,1,"word",444
"427","C67","Switch",NA,"Stiefel","LeftArrow",2.83609390258789,1,"p_d_hit",317,"1",NA,"german",2,"D","NWG",NA,NA,"word",459
"428","C67","Switch",NA,"Trailor","LeftArrow",2.27690196037292,1,"p_e_hit",318,"1",NA,"english",2,"E","NWE",NA,NA,"word",471
"429","C67","Switch",NA,"Workbench","LeftArrow",2.6919150352478,1,"e_e_hit",315,"1",NA,"english",2,"E","EE",NA,NA,"word",472
"430","C67","Switch",NA,"Ladrich","RightArrow",5.12319016456604,1,"e_p_crj",316,"0",NA,"nonword",2,"P","ENW",NA,NA,"nonword",473
"431","C67","Switch",NA,"Werkbank","LeftArrow",2.35265684127808,1,"d_d_hit",311,"1",NA,"german",2,"D","GG",NA,NA,"word",475
"432","C68","English",82,"Monsoon","LeftArrow",2.11375212669373,1,"Hit",260,"1","LF","english",2,NA,NA,NA,NA,"word",16
"433","C68","Switch",NA,"Waistcoat","LeftArrow",2.13486790657043,1,"p_e_hit",318,"1",NA,"english",2,"E","NWE",NA,NA,"word",317
"434","C69","German",16,"Bereich","LeftArrow",2.22923493385315,1,"Hit",161,"1","HF","german",2,NA,NA,NA,NA,"word",1
"435","C69","German",103,"Pfeife","RightArrow",4.1444079875946,0,"Missing",165,"1","LF","german",2,NA,NA,NA,NA,"word",5
"436","C69","German",104,"Pfeimass","RightArrow",2.16513514518738,1,"CorrRej",162,"0","PW","german",2,NA,NA,NA,NA,"nonword",28
"437","C69","German",62,"Klempheit","RightArrow",2.20961093902588,1,"CorrRej",162,"0","PW","german",2,NA,NA,NA,NA,"nonword",65
"438","C69","German",3,"Altuch","RightArrow",3.40615296363831,1,"CorrRej",162,"0","PW","german",2,NA,NA,NA,NA,"nonword",80
"439","C69","German",129,"Seikon","RightArrow",2.17140007019043,1,"CorrRej",162,"0","PW","german",2,NA,NA,NA,NA,"nonword",100
"440","C69","German",18,"Bilzent","RightArrow",2.10196495056152,1,"CorrRej",162,"0","PW","german",2,NA,NA,NA,NA,"nonword",101
"441","C69","German",34,"Fallche","RightArrow",3.35967397689819,1,"CorrRej",162,"0","PW","german",2,NA,NA,NA,NA,"nonword",103
"442","C69","German",5,"Ansprit","RightArrow",2.6911449432373,1,"CorrRej",162,"0","PW","german",2,NA,NA,NA,NA,"nonword",126
"443","C69","German",127,"Schraube","LeftArrow",2.04824995994568,1,"Hit",160,"1","LF","german",2,NA,NA,NA,NA,"word",155
"444","C69","German",39,"Folke","RightArrow",4.64254999160767,1,"CorrRej",162,"0","PW","german",2,NA,NA,NA,NA,"nonword",163
"445","C69","German",33,"Fagott","RightArrow",2.44268393516541,0,"Missing",165,"1","LF","german",2,NA,NA,NA,NA,"word",169
"446","C69","German",171,"Woralt","RightArrow",2.17110681533813,1,"CorrRej",162,"0","PW","german",2,NA,NA,NA,NA,"nonword",179
"447","C69","English",116,"Preacher","LeftArrow",5.08507895469666,1,"Hit",260,"1","LF","english",2,NA,NA,NA,NA,"word",3
"448","C69","English",105,"Petal","RightArrow",6.12391114234924,0,"Missing",265,"1","LF","english",2,NA,NA,NA,NA,"word",11
"449","C69","English",8,"Berglue","RightArrow",2.84080696105957,1,"CorrRej",262,"0","PW","english",2,NA,NA,NA,NA,"nonword",12
"450","C69","English",17,"Cansmith","RightArrow",2.52198195457458,1,"CorrRej",262,"0","PW","english",2,NA,NA,NA,NA,"nonword",30
"451","C69","English",145,"Subpac","RightArrow",2.96583414077759,1,"CorrRej",262,"0","PW","english",2,NA,NA,NA,NA,"nonword",45
"452","C69","English",91,"Neighbark","RightArrow",2.21171522140503,1,"CorrRej",262,"0","PW","english",2,NA,NA,NA,NA,"nonword",57
"453","C69","English",166,"Vapour","LeftArrow",6.01282286643982,1,"Hit",260,"1","LF","english",2,NA,NA,NA,NA,"word",58
"454","C69","English",155,"Taboo","LeftArrow",2.09555387496948,1,"Hit",260,"1","LF","english",2,NA,NA,NA,NA,"word",69
"455","C69","English",131,"Rooftop","LeftArrow",2.73210382461548,1,"Hit",260,"1","LF","english",2,NA,NA,NA,NA,"word",76
"456","C69","English",69,"Lizard","LeftArrow",4.91214108467102,1,"Hit",260,"1","LF","english",2,NA,NA,NA,NA,"word",77
"457","C69","English",121,"Racket","LeftArrow",2.39466190338135,1,"Hit",260,"1","LF","english",2,NA,NA,NA,NA,"word",85
"458","C69","English",9,"Blacksmith","LeftArrow",2.87296414375305,1,"Hit",260,"1","LF","english",2,NA,NA,NA,NA,"word",122
"459","C69","English",90,"Navel","RightArrow",2.29839515686035,0,"Missing",265,"1","LF","english",2,NA,NA,NA,NA,"word",177
"460","C69","Switch",NA,"Sessel","RightArrow",0.0205628871917725,0,"d_d_miss",321,"1",NA,"german",2,"D","GG",NA,NA,"word",335
"461","C69","Switch",NA,"Cornet","RightArrow",3.89446592330933,0,"d_e_miss",322,"1",NA,"english",2,"E","GE",1,NA,"word",3
"462","C69","Switch",NA,"Quartet","LeftArrow",2.44008302688599,1,"d_e_hit",312,"1",NA,"english",2,"E","GE",1,NA,"word",62
"463","C69","Switch",NA,"Nacken","LeftArrow",3.67014408111572,1,"d_d_hit",311,"1",NA,"german",2,"D","GG",NA,NA,"word",84
"464","C69","Switch",NA,"Petpea","RightArrow",2.17722606658936,1,"e_p_crj",316,"0",NA,"nonword",2,"P","ENW",NA,NA,"nonword",94
"465","C69","Switch",NA,"Rabe","RightArrow",2.06666398048401,0,"p_d_miss",327,"1",NA,"german",2,"D","NWG",NA,NA,"word",114
"466","C69","Switch",NA,"Saucepan","LeftArrow",2.33785581588745,1,"d_e_hit",312,"1",NA,"english",2,"E","GE",1,NA,"word",115
"467","C69","Switch",NA,"Pfirsich","LeftArrow",2.45450210571289,1,"e_d_hit",314,"1",NA,"german",2,"D","EG",NA,1,"word",116
"468","C69","Switch",NA,"Piecot","RightArrow",4.69517517089844,1,"e_p_crj",316,"0",NA,"nonword",2,"P","ENW",NA,NA,"nonword",123
"469","C69","Switch",NA,"Plantmus","RightArrow",2.59580612182617,1,"p_p_crj",319,"0",NA,"nonword",2,"P","NWNW",NA,NA,"nonword",136
"470","C69","Switch",NA,"Dresser","LeftArrow",2.64674210548401,1,"p_e_hit",318,"1",NA,"english",2,"E","NWE",NA,NA,"word",171
"471","C69","Switch",NA,"Birne","LeftArrow",2.49205303192139,1,"d_d_hit",311,"1",NA,"german",2,"D","GG",NA,NA,"word",177
"472","C69","Switch",NA,"Rhythmus","LeftArrow",3.08435106277466,1,"e_d_hit",314,"1",NA,"german",2,"D","EG",NA,1,"word",189
"473","C69","Switch",NA,"Scherich","RightArrow",4.22848510742188,1,"d_p_crj",313,"0",NA,"nonword",2,"P","GNW",NA,NA,"nonword",206
"474","C69","Switch",NA,"Spargel","LeftArrow",2.52274799346924,1,"e_d_hit",314,"1",NA,"german",2,"D","EG",NA,1,"word",208
"475","C69","Switch",NA,"Walpfrei","RightArrow",2.8444459438324,1,"p_p_crj",319,"0",NA,"nonword",2,"P","NWNW",NA,NA,"nonword",211
"476","C69","Switch",NA,"Lehrer","LeftArrow",2.17762303352356,1,"e_d_hit",314,"1",NA,"german",2,"D","EG",NA,1,"word",213
"477","C69","Switch",NA,"Schauer","LeftArrow",2.19507312774658,1,"e_d_hit",314,"1",NA,"german",2,"D","EG",NA,1,"word",223
"478","C69","Switch",NA,"Schemel","LeftArrow",3.23748898506165,1,"d_d_hit",311,"1",NA,"german",2,"D","GG",NA,NA,"word",226
"479","C69","Switch",NA,"Hose","LeftArrow",2.34634017944336,1,"p_d_hit",317,"1",NA,"german",2,"D","NWG",NA,NA,"word",232
"480","C69","Switch",NA,"Taucke","RightArrow",3.03921604156494,1,"p_p_crj",319,"0",NA,"nonword",2,"P","NWNW",NA,NA,"nonword",234
"481","C69","Switch",NA,"Donkey","LeftArrow",5.42010998725891,1,"d_e_hit",312,"1",NA,"english",2,"E","GE",1,NA,"word",236
"482","C69","Switch",NA,"Ginger","LeftArrow",2.90517401695251,1,"e_e_hit",315,"1",NA,"english",2,"E","EE",NA,NA,"word",237
"483","C69","Switch",NA,"Spramus","RightArrow",3.01348304748535,1,"d_p_crj",313,"0",NA,"nonword",2,"P","GNW",NA,NA,"nonword",250
"484","C69","Switch",NA,"Schlagzeug","LeftArrow",2.55084609985352,1,"e_d_hit",314,"1",NA,"german",2,"D","EG",NA,1,"word",257
"485","C69","Switch",NA,"Pfanstik","RightArrow",2.10142493247986,1,"p_p_crj",319,"0",NA,"nonword",2,"P","NWNW",NA,NA,"nonword",263
"486","C69","Switch",NA,"Messer","LeftArrow",2.11659502983093,1,"d_d_hit",311,"1",NA,"german",2,"D","GG",NA,NA,"word",267
"487","C69","Switch",NA,"Ratte","LeftArrow",2.0012469291687,1,"e_d_hit",314,"1",NA,"german",2,"D","EG",NA,1,"word",273
"488","C69","Switch",NA,"Hobel","RightArrow",2.34122586250305,0,"d_d_miss",321,"1",NA,"german",2,"D","GG",NA,NA,"word",284
"489","C69","Switch",NA,"Stocers","RightArrow",2.18016505241394,1,"e_p_crj",316,"0",NA,"nonword",2,"P","ENW",NA,NA,"nonword",299
"490","C69","Switch",NA,"Schautich","RightArrow",2.41212105751038,1,"e_p_crj",316,"0",NA,"nonword",2,"P","ENW",NA,NA,"nonword",309
"491","C69","Switch",NA,"Waistcoat","RightArrow",3.41206097602844,0,"p_e_miss",328,"1",NA,"english",2,"E","NWE",NA,NA,"word",317
"492","C69","Switch",NA,"Bluzeug","LeftArrow",2.0534770488739,0,"p_p_fa",329,"0",NA,"nonword",2,"P","NWNW",NA,NA,"nonword",320
"493","C69","Switch",NA,"Jacke","LeftArrow",2.84492301940918,1,"e_d_hit",314,"1",NA,"german",2,"D","EG",NA,1,"word",322
"494","C69","Switch",NA,"Orgel","LeftArrow",3.28799605369568,1,"d_d_hit",311,"1",NA,"german",2,"D","GG",NA,NA,"word",323
"495","C69","Switch",NA,"Surfree","RightArrow",4.27902984619141,1,"p_p_crj",319,"0",NA,"nonword",2,"P","NWNW",NA,NA,"nonword",360
"496","C69","Switch",NA,"Kuckdau","RightArrow",2.3708598613739,1,"p_p_crj",319,"0",NA,"nonword",2,"P","NWNW",NA,NA,"nonword",361
"497","C69","Switch",NA,"Skating","LeftArrow",3.19969606399536,1,"e_e_hit",315,"1",NA,"english",2,"E","EE",NA,NA,"word",373
"498","C69","Switch",NA,"Wetsuit","LeftArrow",3.81936812400818,1,"p_e_hit",318,"1",NA,"english",2,"E","NWE",NA,NA,"word",376
"499","C69","Switch",NA,"Heater","LeftArrow",3.67597699165344,1,"d_e_hit",312,"1",NA,"english",2,"E","GE",1,NA,"word",407
"500","C69","Switch",NA,"Wearlpie","RightArrow",2.75677490234375,1,"p_p_crj",319,"0",NA,"nonword",2,"P","NWNW",NA,NA,"nonword",420
"501","C69","Switch",NA,"Meise","LeftArrow",3.05886793136597,1,"e_d_hit",314,"1",NA,"german",2,"D","EG",NA,1,"word",444
"502","C69","Switch",NA,"Badger","LeftArrow",2.71155714988708,1,"e_e_hit",315,"1",NA,"english",2,"E","EE",NA,NA,"word",457
"503","C69","Switch",NA,"Trailor","LeftArrow",2.26017904281616,1,"p_e_hit",318,"1",NA,"english",2,"E","NWE",NA,NA,"word",471
"504","C69","Switch",NA,"Workbench","RightArrow",3.55301308631897,0,"e_e_miss",325,"1",NA,"english",2,"E","EE",NA,NA,"word",472
"505","C69","Switch",NA,"Railtrol","RightArrow",2.44902992248535,1,"d_p_crj",313,"0",NA,"nonword",2,"P","GNW",NA,NA,"nonword",476
"506","C70","Switch",NA,"Berry","LeftArrow",2.00132489204407,1,"e_e_hit",315,"1",NA,"english",2,"E","EE",NA,NA,"word",377
"507","C71","English",71,"Machine","LeftArrow",0.288043022155762,1,"Hit",261,"1","HF","english",2,NA,NA,NA,NA,"word",99
"508","C71","English",31,"Damage","LeftArrow",2.05379700660706,1,"Hit",261,"1","HF","english",2,NA,NA,NA,NA,"word",5
"509","C71","Switch",NA,"Daukan","LeftArrow",0.292722940444946,0,"d_p_fa",323,"0",NA,"nonword",2,"P","GNW",NA,NA,"nonword",258
"510","C71","Switch",NA,"Cardboard","LeftArrow",2.00144791603088,1,"p_e_hit",318,"1",NA,"english",2,"E","NWE",NA,NA,"word",321
"511","C72","German",147,"Teiben","RightArrow",2.05624794960022,1,"CorrRej",162,"0","PW","german",2,NA,NA,NA,NA,"nonword",15
"512","C72","German",136,"Splitschaft","RightArrow",2.01965093612671,1,"CorrRej",162,"0","PW","german",2,NA,NA,NA,NA,"nonword",44
"513","C72","German",128,"Seife","LeftArrow",2.12823486328125,1,"Hit",160,"1","LF","german",2,NA,NA,NA,NA,"word",80
"514","C72","German",58,"Klamel","RightArrow",2.44785213470459,1,"CorrRej",162,"0","PW","german",2,NA,NA,NA,NA,"nonword",86
"515","C72","German",77,"Mannleis","RightArrow",2.24877285957336,1,"CorrRej",162,"0","PW","german",2,NA,NA,NA,NA,"nonword",90
"516","C72","German",135,"Splitbus","RightArrow",4.94126200675964,1,"CorrRej",162,"0","PW","german",2,NA,NA,NA,NA,"nonword",91
"517","C72","German",123,"Schleife","RightArrow",3.2861590385437,0,"Missing",165,"1","LF","german",2,NA,NA,NA,NA,"word",94
"518","C72","German",10,"Bauchtanz","LeftArrow",2.21663999557495,1,"Hit",160,"1","LF","german",2,NA,NA,NA,NA,"word",95
"519","C72","German",50,"Glerein","RightArrow",2.74024510383606,1,"CorrRej",162,"0","PW","german",2,NA,NA,NA,NA,"nonword",96
"520","C72","German",67,"Kochtopf","LeftArrow",2.26791381835938,1,"Hit",160,"1","LF","german",2,NA,NA,NA,NA,"word",126
"521","C72","German",177,"Zentmu","RightArrow",3.37937903404236,1,"CorrRej",162,"0","PW","german",2,NA,NA,NA,NA,"nonword",134
"522","C72","German",55,"Kaltfront","LeftArrow",2.43197989463806,1,"Hit",160,"1","LF","german",2,NA,NA,NA,NA,"word",172
"523","C72","English",140,"Sterwed","RightArrow",2.44127893447876,1,"CorrRej",262,"0","PW","english",2,NA,NA,NA,NA,"nonword",3
"524","C72","English",29,"Courtber","RightArrow",2.00949692726135,1,"CorrRej",262,"0","PW","english",2,NA,NA,NA,NA,"nonword",5
"525","C72","English",151,"Sumting","RightArrow",3.42861390113831,1,"CorrRej",262,"0","PW","english",2,NA,NA,NA,NA,"nonword",24
"526","C72","English",66,"Letnon","RightArrow",2.08598113059998,1,"CorrRej",262,"0","PW","english",2,NA,NA,NA,NA,"nonword",25
"527","C72","English",162,"Trypost","RightArrow",2.15305113792419,1,"CorrRej",262,"0","PW","english",2,NA,NA,NA,NA,"nonword",27
"528","C72","English",177,"Windmill","LeftArrow",4.73812699317932,1,"Hit",260,"1","LF","english",2,NA,NA,NA,NA,"word",34
"529","C72","English",118,"Proture","RightArrow",2.52956390380859,1,"CorrRej",262,"0","PW","english",2,NA,NA,NA,NA,"nonword",41
"530","C72","English",44,"Ficetea","RightArrow",2.12368202209473,1,"CorrRej",262,"0","PW","english",2,NA,NA,NA,NA,"nonword",44
"531","C72","English",72,"Media","LeftArrow",3.05572080612183,1,"Hit",261,"1","HF","english",2,NA,NA,NA,NA,"word",51
"532","C72","English",168,"Villber","RightArrow",2.77951598167419,1,"CorrRej",262,"0","PW","english",2,NA,NA,NA,NA,"nonword",75
"533","C72","English",82,"Monsoon","LeftArrow",3.35907602310181,1,"Hit",260,"1","LF","english",2,NA,NA,NA,NA,"word",82
"534","C72","English",100,"Package","LeftArrow",2.20204901695251,1,"Hit",261,"1","HF","english",2,NA,NA,NA,NA,"word",94
"535","C72","English",46,"Forweath","RightArrow",2.4076828956604,1,"CorrRej",262,"0","PW","english",2,NA,NA,NA,NA,"nonword",99
"536","C72","English",67,"Lettuce","LeftArrow",3.02677583694458,1,"Hit",260,"1","LF","english",2,NA,NA,NA,NA,"word",112
"537","C72","English",146,"Subraffe","RightArrow",2.05426001548767,1,"CorrRej",262,"0","PW","english",2,NA,NA,NA,NA,"nonword",120
"538","C72","English",92,"Neighbour","LeftArrow",4.08729410171509,1,"Hit",260,"1","LF","english",2,NA,NA,NA,NA,"word",137
"539","C72","English",142,"Storsmit","RightArrow",2.58945393562317,1,"CorrRej",262,"0","PW","english",2,NA,NA,NA,NA,"nonword",153
"540","C72","English",138,"Siren","RightArrow",5.49509787559509,0,"Missing",265,"1","LF","english",2,NA,NA,NA,NA,"word",154
"541","C72","Switch",NA,"Trommel","LeftArrow",2.35067892074585,1,"p_d_hit",317,"1",NA,"german",2,"D","NWG",NA,NA,"word",2
"542","C72","Switch",NA,"Upbeat","RightArrow",5.21178889274597,0,"e_e_miss",325,"1",NA,"english",2,"E","EE",NA,NA,"word",7
"543","C72","Switch",NA,"Sonchain","RightArrow",2.02358603477478,1,"d_p_crj",313,"0",NA,"nonword",2,"P","GNW",NA,NA,"nonword",10
"544","C72","Switch",NA,"Fenchel","LeftArrow",2.64463186264038,1,"e_d_hit",314,"1",NA,"german",2,"D","EG",NA,1,"word",12
"545","C72","Switch",NA,"Copair","RightArrow",3.62967610359192,1,"e_p_crj",316,"0",NA,"nonword",2,"P","ENW",NA,NA,"nonword",21
"546","C72","Switch",NA,"Maler","LeftArrow",2.33887505531311,1,"e_d_hit",314,"1",NA,"german",2,"D","EG",NA,1,"word",28
"547","C72","Switch",NA,"Beetroot","RightArrow",2.15479612350464,0,"d_e_miss",322,"1",NA,"english",2,"E","GE",1,NA,"word",32
"548","C72","Switch",NA,"Scherfech","RightArrow",2.57608914375305,1,"d_p_crj",313,"0",NA,"nonword",2,"P","GNW",NA,NA,"nonword",53
"549","C72","Switch",NA,"Tasse","LeftArrow",2.43612194061279,1,"p_d_hit",317,"1",NA,"german",2,"D","NWG",NA,NA,"word",54
"550","C72","Switch",NA,"Harfe","LeftArrow",2.59783482551575,1,"e_d_hit",314,"1",NA,"german",2,"D","EG",NA,1,"word",58
"551","C72","Switch",NA,"Erlwob","RightArrow",3.09322309494019,1,"p_p_crj",319,"0",NA,"nonword",2,"P","NWNW",NA,NA,"nonword",95
"552","C72","Switch",NA,"Skiing","LeftArrow",2.11786508560181,1,"e_e_hit",315,"1",NA,"english",2,"E","EE",NA,NA,"word",131
"553","C72","Switch",NA,"Lorry","RightArrow",2.15049815177917,0,"p_e_miss",328,"1",NA,"english",2,"E","NWE",NA,NA,"word",134
"554","C72","Switch",NA,"Schniewich","RightArrow",3.17960000038147,1,"e_p_crj",316,"0",NA,"nonword",2,"P","ENW",NA,NA,"nonword",153
"555","C72","Switch",NA,"Garbad","RightArrow",3.32313299179077,1,"e_p_crj",316,"0",NA,"nonword",2,"P","ENW",NA,NA,"nonword",155
"556","C72","Switch",NA,"Waistair","RightArrow",2.16855692863464,1,"d_p_crj",313,"0",NA,"nonword",2,"P","GNW",NA,NA,"nonword",158
"557","C72","Switch",NA,"Octave","LeftArrow",2.40362977981567,1,"e_e_hit",315,"1",NA,"english",2,"E","EE",NA,NA,"word",161
"558","C72","Switch",NA,"Protsilp","LeftArrow",2.29467010498047,0,"e_p_fa",326,"0",NA,"nonword",2,"P","ENW",NA,NA,"nonword",168
"559","C72","Switch",NA,"Copper","LeftArrow",6.92556190490723,1,"p_e_hit",318,"1",NA,"english",2,"E","NWE",NA,NA,"word",169
"560","C72","Switch",NA,"Nashorn","RightArrow",2.74868702888489,0,"p_d_miss",327,"1",NA,"german",2,"D","NWG",NA,NA,"word",176
"561","C72","Switch",NA,"Birne","LeftArrow",4.64600992202759,1,"d_d_hit",311,"1",NA,"german",2,"D","GG",NA,NA,"word",177
"562","C72","Switch",NA,"Wilzlen","RightArrow",3.77806997299194,1,"e_p_crj",316,"0",NA,"nonword",2,"P","ENW",NA,NA,"nonword",181
"563","C72","Switch",NA,"Cregar","RightArrow",2.21255302429199,1,"p_p_crj",319,"0",NA,"nonword",2,"P","NWNW",NA,NA,"nonword",185
"564","C72","Switch",NA,"Carcaft","RightArrow",2.34463310241699,1,"p_p_crj",319,"0",NA,"nonword",2,"P","NWNW",NA,NA,"nonword",191
"565","C72","Switch",NA,"Zwiead","RightArrow",2.66035985946655,1,"d_p_crj",313,"0",NA,"nonword",2,"P","GNW",NA,NA,"nonword",196
"566","C72","Switch",NA,"Mondon","RightArrow",2.07788395881653,1,"e_p_crj",316,"0",NA,"nonword",2,"P","ENW",NA,NA,"nonword",201
"567","C72","Switch",NA,"Bladrad","RightArrow",2.111732006073,1,"d_p_crj",313,"0",NA,"nonword",2,"P","GNW",NA,NA,"nonword",204
"568","C72","Switch",NA,"Monkey","LeftArrow",2.82632207870483,1,"p_e_hit",318,"1",NA,"english",2,"E","NWE",NA,NA,"word",207
"569","C72","Switch",NA,"Katze","LeftArrow",2.04078412055969,1,"e_d_hit",314,"1",NA,"german",2,"D","EG",NA,1,"word",215
"570","C72","Switch",NA,"Cottage","LeftArrow",3.21585893630981,1,"d_e_hit",312,"1",NA,"english",2,"E","GE",1,NA,"word",216
"571","C72","Switch",NA,"Weste","RightArrow",5.07204794883728,0,"e_d_miss",324,"1",NA,"german",2,"D","EG",NA,1,"word",217
"572","C72","Switch",NA,"Schauer","LeftArrow",2.48403811454773,1,"e_d_hit",314,"1",NA,"german",2,"D","EG",NA,1,"word",223
"573","C72","Switch",NA,"Reindeer","RightArrow",8.81044912338257,0,"d_e_miss",322,"1",NA,"english",2,"E","GE",1,NA,"word",230
"574","C72","Switch",NA,"Maukasch","LeftArrow",2.1488618850708,0,"d_p_fa",323,"0",NA,"nonword",2,"P","GNW",NA,NA,"nonword",233
"575","C72","Switch",NA,"Pentwi","RightArrow",3.21430993080139,1,"e_p_crj",316,"0",NA,"nonword",2,"P","ENW",NA,NA,"nonword",248
"576","C72","Switch",NA,"Pfanstik","RightArrow",2.00695300102234,1,"p_p_crj",319,"0",NA,"nonword",2,"P","NWNW",NA,NA,"nonword",263
"577","C72","Switch",NA,"Balcraft","RightArrow",3.68246388435364,1,"p_p_crj",319,"0",NA,"nonword",2,"P","NWNW",NA,NA,"nonword",264
"578","C72","Switch",NA,"Scraper","LeftArrow",3.49560189247131,1,"p_e_hit",318,"1",NA,"english",2,"E","NWE",NA,NA,"word",265
"579","C72","Switch",NA,"Currant","RightArrow",6.93367385864258,0,"p_e_miss",328,"1",NA,"english",2,"E","NWE",NA,NA,"word",272
"580","C72","Switch",NA,"Tauchen","LeftArrow",2.05049586296082,1,"d_d_hit",311,"1",NA,"german",2,"D","GG",NA,NA,"word",274
"581","C72","Switch",NA,"Floodbon","RightArrow",2.86742901802063,1,"p_p_crj",319,"0",NA,"nonword",2,"P","NWNW",NA,NA,"nonword",281
"582","C72","Switch",NA,"Scherad","RightArrow",2.16196298599243,1,"d_p_crj",313,"0",NA,"nonword",2,"P","GNW",NA,NA,"nonword",285
"583","C72","Switch",NA,"Lehmo","RightArrow",2.22908496856689,1,"p_p_crj",319,"0",NA,"nonword",2,"P","NWNW",NA,NA,"nonword",286
"584","C72","Switch",NA,"Trettle","RightArrow",3.64404010772705,1,"p_p_crj",319,"0",NA,"nonword",2,"P","NWNW",NA,NA,"nonword",287
"585","C72","Switch",NA,"Bunker","LeftArrow",2.18021011352539,1,"p_d_hit",317,"1",NA,"german",2,"D","NWG",NA,NA,"word",291
"586","C72","Switch",NA,"Prirant","RightArrow",2.62312006950378,1,"e_p_crj",316,"0",NA,"nonword",2,"P","ENW",NA,NA,"nonword",303
"587","C72","Switch",NA,"Schautich","RightArrow",2.19203615188599,1,"e_p_crj",316,"0",NA,"nonword",2,"P","ENW",NA,NA,"nonword",309
"588","C72","Switch",NA,"Truad","RightArrow",2.01485705375671,1,"p_p_crj",319,"0",NA,"nonword",2,"P","NWNW",NA,NA,"nonword",310
"589","C72","Switch",NA,"Fenkohl","RightArrow",2.18135595321655,1,"d_p_crj",313,"0",NA,"nonword",2,"P","GNW",NA,NA,"nonword",312
"590","C72","Switch",NA,"Waistcoat","RightArrow",2.19784879684448,0,"p_e_miss",328,"1",NA,"english",2,"E","NWE",NA,NA,"word",317
"591","C72","Switch",NA,"Oldress","RightArrow",3.15720796585083,1,"p_p_crj",319,"0",NA,"nonword",2,"P","NWNW",NA,NA,"nonword",339
"592","C72","Switch",NA,"Ningtrom","RightArrow",3.15715599060059,1,"p_p_crj",319,"0",NA,"nonword",2,"P","NWNW",NA,NA,"nonword",340
"593","C72","Switch",NA,"Rotkohl","RightArrow",2.09835386276245,0,"p_d_miss",327,"1",NA,"german",2,"D","NWG",NA,NA,"word",341
"594","C72","Switch",NA,"Silearth","RightArrow",3.09823489189148,1,"p_p_crj",319,"0",NA,"nonword",2,"P","NWNW",NA,NA,"nonword",353
"595","C72","Switch",NA,"Kuckdau","RightArrow",3.76613092422485,1,"p_p_crj",319,"0",NA,"nonword",2,"P","NWNW",NA,NA,"nonword",361
"596","C72","Switch",NA,"Blender","RightArrow",2.53800010681152,0,"p_e_miss",328,"1",NA,"english",2,"E","NWE",NA,NA,"word",370
"597","C72","Switch",NA,"Vieruck","RightArrow",2.26940679550171,1,"e_p_crj",316,"0",NA,"nonword",2,"P","ENW",NA,NA,"nonword",375
"598","C72","Switch",NA,"Wetsuit","RightArrow",3.22490501403809,0,"p_e_miss",328,"1",NA,"english",2,"E","NWE",NA,NA,"word",376
"599","C72","Switch",NA,"Bagpipe","LeftArrow",2.07727313041687,1,"e_e_hit",315,"1",NA,"english",2,"E","EE",NA,NA,"word",378
"600","C72","Switch",NA,"Cupboard","RightArrow",2.32487297058105,0,"p_e_miss",328,"1",NA,"english",2,"E","NWE",NA,NA,"word",389
"601","C72","Switch",NA,"Eggplant","RightArrow",2.72029495239258,0,"d_e_miss",322,"1",NA,"english",2,"E","GE",1,NA,"word",393
"602","C72","Switch",NA,"Richter","LeftArrow",2.26714396476746,1,"p_d_hit",317,"1",NA,"german",2,"D","NWG",NA,NA,"word",409
"603","C72","Switch",NA,"Bielip","RightArrow",3.47471690177917,1,"d_p_crj",313,"0",NA,"nonword",2,"P","GNW",NA,NA,"nonword",413
"604","C72","Switch",NA,"Surgeon","LeftArrow",2.03678107261658,1,"e_e_hit",315,"1",NA,"english",2,"E","EE",NA,NA,"word",417
"605","C72","Switch",NA,"Hymne","LeftArrow",7.54979610443115,1,"e_d_hit",314,"1",NA,"german",2,"D","EG",NA,1,"word",418
"606","C72","Switch",NA,"Hocker","LeftArrow",3.28270101547241,1,"p_d_hit",317,"1",NA,"german",2,"D","NWG",NA,NA,"word",421
"607","C72","Switch",NA,"Juicer","RightArrow",2.34091401100159,0,"d_e_miss",322,"1",NA,"english",2,"E","GE",1,NA,"word",431
"608","C72","Switch",NA,"Storschmitt","RightArrow",3.07879304885864,1,"e_p_crj",316,"0",NA,"nonword",2,"P","ENW",NA,NA,"nonword",434
"609","C72","Switch",NA,"Fibre","LeftArrow",2.79602718353271,1,"p_e_hit",318,"1",NA,"english",2,"E","NWE",NA,NA,"word",436
"610","C72","Switch",NA,"Gable","RightArrow",2.03017210960388,0,"d_e_miss",322,"1",NA,"english",2,"E","GE",1,NA,"word",443
"611","C72","Switch",NA,"Stiebrik","RightArrow",2.19561409950256,1,"d_p_crj",313,"0",NA,"nonword",2,"P","GNW",NA,NA,"nonword",445
"612","C72","Switch",NA,"Schrauseg","RightArrow",2.46244096755981,1,"p_p_crj",319,"0",NA,"nonword",2,"P","NWNW",NA,NA,"nonword",446
"613","C72","Switch",NA,"Glafa","RightArrow",2.39423298835754,1,"d_p_crj",313,"0",NA,"nonword",2,"P","GNW",NA,NA,"nonword",452
"614","C72","Switch",NA,"Showroom","LeftArrow",2.01643800735474,1,"p_e_hit",318,"1",NA,"english",2,"E","NWE",NA,NA,"word",456
"615","C72","Switch",NA,"Richset","RightArrow",3.51317715644836,1,"e_p_crj",316,"0",NA,"nonword",2,"P","ENW",NA,NA,"nonword",458
"616","C72","Switch",NA,"Skillet","RightArrow",2.13171982765198,0,"d_e_miss",322,"1",NA,"english",2,"E","GE",1,NA,"word",462
"617","C72","Switch",NA,"Auber","RightArrow",5.52185082435608,1,"e_p_crj",316,"0",NA,"nonword",2,"P","ENW",NA,NA,"nonword",470
"618","C72","Switch",NA,"Railtrol","RightArrow",2.40939998626709,1,"d_p_crj",313,"0",NA,"nonword",2,"P","GNW",NA,NA,"nonword",476
"619","C73","German",135,"Splitbus","RightArrow",2.27636289596558,1,"CorrRej",162,"0","PW","german",2,NA,NA,NA,NA,"nonword",172
"620","C73","English",17,"Cansmith","RightArrow",2.32848501205444,1,"CorrRej",262,"0","PW","english",2,NA,NA,NA,NA,"nonword",49
"621","C73","English",11,"Bunkhouse","LeftArrow",3.45783305168152,1,"Hit",260,"1","LF","english",2,NA,NA,NA,NA,"word",58
"622","C73","Switch",NA,"Pawnsit","RightArrow",2.0579981803894,1,"e_p_crj",316,"0",NA,"nonword",2,"P","ENW",NA,NA,"nonword",97
"623","C73","Switch",NA,"Anrobe","RightArrow",2.37171697616577,1,"e_p_crj",316,"0",NA,"nonword",2,"P","ENW",NA,NA,"nonword",119
"624","C73","Switch",NA,"Carcaft","RightArrow",2.76372098922729,1,"p_p_crj",319,"0",NA,"nonword",2,"P","NWNW",NA,NA,"nonword",191
"625","C73","Switch",NA,"Trettle","RightArrow",2.47922992706299,1,"p_p_crj",319,"0",NA,"nonword",2,"P","NWNW",NA,NA,"nonword",287
"626","C74","German",108,"Prellung","LeftArrow",0.2882080078125,1,"Hit",160,"1","LF","german",2,NA,NA,NA,NA,"word",97
"627","C74","Switch",NA,"Sunrise","LeftArrow",0.0414261817932129,1,"d_e_hit",312,"1",NA,"english",2,"E","GE",1,NA,"word",363
"628","C74","Switch",NA,"Sunpamp","LeftArrow",0.015955924987793,0,"d_p_fa",323,"0",NA,"nonword",2,"P","GNW",NA,NA,"nonword",366
"629","C74","Switch",NA,"Schautich","RightArrow",3.32444286346436,1,"e_p_crj",316,"0",NA,"nonword",2,"P","ENW",NA,NA,"nonword",309
"630","C74","Switch",NA,"Elster","LeftArrow",2.14372086524963,1,"e_d_hit",314,"1",NA,"german",2,"D","EG",NA,1,"word",364
"631","C74","Switch",NA,"Tailor","LeftArrow",3.13272404670715,1,"p_e_hit",318,"1",NA,"english",2,"E","NWE",NA,NA,"word",367
"632","C75","German",107,"Pipass","RightArrow",2.04962301254272,1,"CorrRej",162,"0","PW","german",2,NA,NA,NA,NA,"nonword",31
"633","C75","German",154,"Tuchspel","RightArrow",2.5882580280304,1,"CorrRej",162,"0","PW","german",2,NA,NA,NA,NA,"nonword",48
"634","C75","German",63,"Klempner","LeftArrow",2.27393984794617,1,"Hit",160,"1","LF","german",2,NA,NA,NA,NA,"word",56
"635","C75","German",50,"Glerein","RightArrow",2.27607989311218,1,"CorrRej",162,"0","PW","german",2,NA,NA,NA,NA,"nonword",57
"636","C75","German",112,"Rauzept","RightArrow",4.0774450302124,1,"CorrRej",162,"0","PW","german",2,NA,NA,NA,NA,"nonword",59
"637","C75","German",156,"Unfall","LeftArrow",2.54625415802002,1,"Hit",161,"1","HF","german",2,NA,NA,NA,NA,"word",77
"638","C75","German",86,"Merder","RightArrow",2.77091908454895,1,"CorrRej",162,"0","PW","german",2,NA,NA,NA,NA,"nonword",80
"639","C75","German",30,"Erde","LeftArrow",2.09646916389465,1,"Hit",161,"1","HF","german",2,NA,NA,NA,NA,"word",90
"640","C75","German",31,"Erfolg","LeftArrow",2.30937194824219,1,"Hit",161,"1","HF","german",2,NA,NA,NA,NA,"word",127
"641","C75","German",38,"Folge","LeftArrow",3.37165212631226,1,"Hit",161,"1","HF","german",2,NA,NA,NA,NA,"word",130
"642","C75","German",5,"Ansprit","RightArrow",2.21711707115173,1,"CorrRej",162,"0","PW","german",2,NA,NA,NA,NA,"nonword",141
"643","C75","German",145,"Sturmflut","LeftArrow",2.06005096435547,1,"Hit",160,"1","LF","german",2,NA,NA,NA,NA,"word",148
"644","C75","German",122,"Schlachter","LeftArrow",2.14919495582581,1,"Hit",160,"1","LF","german",2,NA,NA,NA,NA,"word",165
"645","C75","English",83,"Moonlight","LeftArrow",3.6939640045166,1,"Hit",260,"1","LF","english",2,NA,NA,NA,NA,"word",27
"646","C75","English",68,"Lidner","RightArrow",2.05880308151245,1,"CorrRej",262,"0","PW","english",2,NA,NA,NA,NA,"nonword",30
"647","C75","English",111,"Porba","RightArrow",6.05216908454895,1,"CorrRej",262,"0","PW","english",2,NA,NA,NA,NA,"nonword",31
"648","C75","English",46,"Forweath","RightArrow",2.165766954422,1,"CorrRej",262,"0","PW","english",2,NA,NA,NA,NA,"nonword",38
"649","C75","English",8,"Berglue","LeftArrow",2.08366203308105,0,"FalseAlarm",267,"0","PW","english",2,NA,NA,NA,NA,"nonword",45
"650","C75","English",112,"Porman","LeftArrow",2.70878887176514,0,"FalseAlarm",267,"0","PW","english",2,NA,NA,NA,NA,"nonword",54
"651","C75","English",29,"Courtber","RightArrow",2.13994908332825,1,"CorrRej",262,"0","PW","english",2,NA,NA,NA,NA,"nonword",58
"652","C75","English",93,"Neighlid","LeftArrow",2.40196895599365,0,"FalseAlarm",267,"0","PW","english",2,NA,NA,NA,NA,"nonword",59
"653","C75","English",51,"Gladay","RightArrow",2.95880198478699,1,"CorrRej",262,"0","PW","english",2,NA,NA,NA,NA,"nonword",60
"654","C75","English",9,"Blacksmith","LeftArrow",3.93508410453796,1,"Hit",260,"1","LF","english",2,NA,NA,NA,NA,"word",63
"655","C75","English",179,"Winmus","RightArrow",2.69076085090637,1,"CorrRej",262,"0","PW","english",2,NA,NA,NA,NA,"nonword",66
"656","C75","English",41,"Feadow","RightArrow",2.86040091514587,1,"CorrRej",262,"0","PW","english",2,NA,NA,NA,NA,"nonword",69
"657","C75","English",77,"Methcon","RightArrow",2.38532590866089,1,"CorrRej",262,"0","PW","english",2,NA,NA,NA,NA,"nonword",76
"658","C75","English",38,"Endster","RightArrow",2.05236196517944,1,"CorrRej",262,"0","PW","english",2,NA,NA,NA,NA,"nonword",85
"659","C75","English",26,"Councher","LeftArrow",2.89199495315552,0,"FalseAlarm",267,"0","PW","english",2,NA,NA,NA,NA,"nonword",95
"660","C75","English",2,"Bagduct","RightArrow",2.23878312110901,1,"CorrRej",262,"0","PW","english",2,NA,NA,NA,NA,"nonword",96
"661","C75","English",120,"Question","LeftArrow",2.27896499633789,1,"Hit",261,"1","HF","english",2,NA,NA,NA,NA,"word",110
"662","C75","English",106,"Picpan","LeftArrow",2.8331310749054,0,"FalseAlarm",267,"0","PW","english",2,NA,NA,NA,NA,"nonword",112
"663","C75","English",57,"Hueye","RightArrow",2.75228691101074,1,"CorrRej",262,"0","PW","english",2,NA,NA,NA,NA,"nonword",126
"664","C75","English",37,"Effort","RightArrow",2.16137099266052,0,"Missing",266,"1","HF","english",2,NA,NA,NA,NA,"word",133
"665","C75","English",28,"Couple","LeftArrow",2.87411999702454,1,"Hit",261,"1","HF","english",2,NA,NA,NA,NA,"word",136
"666","C75","English",7,"Beaver","LeftArrow",2.38227200508118,1,"Hit",260,"1","LF","english",2,NA,NA,NA,NA,"word",141
"667","C75","English",151,"Sumting","LeftArrow",2.18766403198242,0,"FalseAlarm",267,"0","PW","english",2,NA,NA,NA,NA,"nonword",147
"668","C75","English",134,"Shople","RightArrow",2.00204181671143,1,"CorrRej",262,"0","PW","english",2,NA,NA,NA,NA,"nonword",152
"669","C75","English",76,"Merding","RightArrow",5.86818218231201,1,"CorrRej",262,"0","PW","english",2,NA,NA,NA,NA,"nonword",153
"670","C75","English",36,"Drizzle","RightArrow",3.90058493614197,0,"Missing",265,"1","LF","english",2,NA,NA,NA,NA,"word",155
"671","C75","English",145,"Subpac","RightArrow",2.9492769241333,1,"CorrRej",262,"0","PW","english",2,NA,NA,NA,NA,"nonword",156
"672","C75","English",45,"Fortmel","RightArrow",3.15761494636536,1,"CorrRej",262,"0","PW","english",2,NA,NA,NA,NA,"nonword",171
"673","C75","English",11,"Bunkhouse","LeftArrow",2.67010593414307,1,"Hit",260,"1","LF","english",2,NA,NA,NA,NA,"word",173
"674","C75","Switch",NA,"Hummel","LeftArrow",2.33923292160034,1,"p_d_hit",317,"1",NA,"german",2,"D","NWG",NA,NA,"word",9
"675","C75","Switch",NA,"Sonchain","RightArrow",3.07407021522522,1,"d_p_crj",313,"0",NA,"nonword",2,"P","GNW",NA,NA,"nonword",10
"676","C75","Switch",NA,"Platin","LeftArrow",3.19184803962708,1,"e_d_hit",314,"1",NA,"german",2,"D","EG",NA,1,"word",37
"677","C75","Switch",NA,"Trolfid","RightArrow",2.02247619628906,1,"d_p_crj",313,"0",NA,"nonword",2,"P","GNW",NA,NA,"nonword",44
"678","C75","Switch",NA,"Almond","LeftArrow",3.20492100715637,1,"e_e_hit",315,"1",NA,"english",2,"E","EE",NA,NA,"word",48
"679","C75","Switch",NA,"Castle","LeftArrow",2.50950503349304,1,"d_e_hit",312,"1",NA,"english",2,"E","GE",1,NA,"word",55
"680","C75","Switch",NA,"Zwieglet","RightArrow",2.71603083610535,1,"d_p_crj",313,"0",NA,"nonword",2,"P","GNW",NA,NA,"nonword",111
"681","C75","Switch",NA,"Rabe","LeftArrow",2.44976687431335,1,"p_d_hit",317,"1",NA,"german",2,"D","NWG",NA,NA,"word",114
"682","C75","Switch",NA,"Hedgehog","LeftArrow",2.60811686515808,1,"p_e_hit",318,"1",NA,"english",2,"E","NWE",NA,NA,"word",120
"683","C75","Switch",NA,"Lorry","RightArrow",2.66026401519775,0,"p_e_miss",328,"1",NA,"english",2,"E","NWE",NA,NA,"word",134
"684","C75","Switch",NA,"Plantmus","RightArrow",2.6972279548645,1,"p_p_crj",319,"0",NA,"nonword",2,"P","NWNW",NA,NA,"nonword",136
"685","C75","Switch",NA,"Guitar","LeftArrow",2.15882611274719,1,"p_e_hit",318,"1",NA,"english",2,"E","NWE",NA,NA,"word",154
"686","C75","Switch",NA,"Kanu","LeftArrow",2.46544885635376,1,"d_d_hit",311,"1",NA,"german",2,"D","GG",NA,NA,"word",157
"687","C75","Switch",NA,"Waistair","RightArrow",2.69728684425354,1,"d_p_crj",313,"0",NA,"nonword",2,"P","GNW",NA,NA,"nonword",158
"688","C75","Switch",NA,"Monrot","RightArrow",2.10790014266968,1,"e_p_crj",316,"0",NA,"nonword",2,"P","ENW",NA,NA,"nonword",175
"689","C75","Switch",NA,"Birne","LeftArrow",2.98277711868286,1,"d_d_hit",311,"1",NA,"german",2,"D","GG",NA,NA,"word",177
"690","C75","Switch",NA,"Melon","LeftArrow",2.15848016738892,1,"d_e_hit",312,"1",NA,"english",2,"E","GE",1,NA,"word",180
"691","C75","Switch",NA,"Wilzlen","RightArrow",3.77906918525696,1,"e_p_crj",316,"0",NA,"nonword",2,"P","ENW",NA,NA,"nonword",181
"692","C75","Switch",NA,"Cregar","RightArrow",2.52098894119263,1,"p_p_crj",319,"0",NA,"nonword",2,"P","NWNW",NA,NA,"nonword",185
"693","C75","Switch",NA,"Bamboo","RightArrow",2.41175389289856,0,"d_e_miss",322,"1",NA,"english",2,"E","GE",1,NA,"word",199
"694","C75","Switch",NA,"Wadbard","RightArrow",2.15332007408142,1,"p_p_crj",319,"0",NA,"nonword",2,"P","NWNW",NA,NA,"nonword",202
"695","C75","Switch",NA,"Knarre","LeftArrow",2.29209303855896,1,"p_d_hit",317,"1",NA,"german",2,"D","NWG",NA,NA,"word",203
"696","C75","Switch",NA,"Bladrad","RightArrow",2.00063800811768,1,"d_p_crj",313,"0",NA,"nonword",2,"P","GNW",NA,NA,"nonword",204
"697","C75","Switch",NA,"Stattkla","RightArrow",2.11841487884521,1,"e_p_crj",316,"0",NA,"nonword",2,"P","ENW",NA,NA,"nonword",219
"698","C75","Switch",NA,"Maukasch","RightArrow",4.88753914833069,1,"d_p_crj",313,"0",NA,"nonword",2,"P","GNW",NA,NA,"nonword",233
"699","C75","Switch",NA,"Naleu","RightArrow",2.24093818664551,1,"e_p_crj",316,"0",NA,"nonword",2,"P","ENW",NA,NA,"nonword",238
"700","C75","Switch",NA,"Spramus","RightArrow",2.05995416641235,1,"d_p_crj",313,"0",NA,"nonword",2,"P","GNW",NA,NA,"nonword",250
"701","C75","Switch",NA,"Pliers","RightArrow",3.51113605499268,0,"d_e_miss",322,"1",NA,"english",2,"E","GE",1,NA,"word",256
"702","C75","Switch",NA,"Daukan","RightArrow",4.0815908908844,1,"d_p_crj",313,"0",NA,"nonword",2,"P","GNW",NA,NA,"nonword",258
"703","C75","Switch",NA,"Lightclim","RightArrow",2.10450005531311,1,"p_p_crj",319,"0",NA,"nonword",2,"P","NWNW",NA,NA,"nonword",259
"704","C75","Switch",NA,"Rotkel","RightArrow",2.10537219047546,1,"e_p_crj",316,"0",NA,"nonword",2,"P","ENW",NA,NA,"nonword",276
"705","C75","Switch",NA,"Baglor","LeftArrow",3.65769290924072,0,"p_p_fa",329,"0",NA,"nonword",2,"P","NWNW",NA,NA,"nonword",280
"706","C75","Switch",NA,"Trettle","LeftArrow",4.1963939666748,0,"p_p_fa",329,"0",NA,"nonword",2,"P","NWNW",NA,NA,"nonword",287
"707","C75","Switch",NA,"Shawmod","RightArrow",2.45431685447693,1,"d_p_crj",313,"0",NA,"nonword",2,"P","GNW",NA,NA,"nonword",295
"708","C75","Switch",NA,"Ballad","LeftArrow",2.65143299102783,1,"d_e_hit",312,"1",NA,"english",2,"E","GE",1,NA,"word",308
"709","C75","Switch",NA,"Waistcoat","LeftArrow",2.6394898891449,1,"p_e_hit",318,"1",NA,"english",2,"E","NWE",NA,NA,"word",317
"710","C75","Switch",NA,"Bluzeug","RightArrow",2.22661685943604,1,"p_p_crj",319,"0",NA,"nonword",2,"P","NWNW",NA,NA,"nonword",320
"711","C75","Switch",NA,"Oldress","RightArrow",2.1315758228302,1,"p_p_crj",319,"0",NA,"nonword",2,"P","NWNW",NA,NA,"nonword",339
"712","C75","Switch",NA,"Bresteam","RightArrow",2.336177110672,1,"e_p_crj",316,"0",NA,"nonword",2,"P","ENW",NA,NA,"nonword",343
"713","C75","Switch",NA,"Cabbage","LeftArrow",2.18326115608215,1,"e_e_hit",315,"1",NA,"english",2,"E","EE",NA,NA,"word",346
"714","C75","Switch",NA,"Lerwan","RightArrow",2.45108485221863,1,"d_p_crj",313,"0",NA,"nonword",2,"P","GNW",NA,NA,"nonword",350
"715","C75","Switch",NA,"Silearth","RightArrow",2.2008650302887,1,"p_p_crj",319,"0",NA,"nonword",2,"P","NWNW",NA,NA,"nonword",353
"716","C75","Switch",NA,"Autumn","LeftArrow",5.29526209831238,1,"d_e_hit",312,"1",NA,"english",2,"E","GE",1,NA,"word",355
"717","C75","Switch",NA,"Gauntlet","RightArrow",2.18635702133179,0,"e_e_miss",325,"1",NA,"english",2,"E","EE",NA,NA,"word",356
"718","C75","Switch",NA,"Surfree","LeftArrow",2.81412100791931,0,"p_p_fa",329,"0",NA,"nonword",2,"P","NWNW",NA,NA,"nonword",360
"719","C75","Switch",NA,"Scheuwe","RightArrow",2.15624094009399,1,"e_p_crj",316,"0",NA,"nonword",2,"P","ENW",NA,NA,"nonword",390
"720","C75","Switch",NA,"Railcar","RightArrow",2.60877013206482,0,"p_e_miss",328,"1",NA,"english",2,"E","NWE",NA,NA,"word",391
"721","C75","Switch",NA,"Tinseg","RightArrow",2.08648705482483,1,"p_p_crj",319,"0",NA,"nonword",2,"P","NWNW",NA,NA,"nonword",395
"722","C75","Switch",NA,"Boncan","RightArrow",4.56759786605835,1,"p_p_crj",319,"0",NA,"nonword",2,"P","NWNW",NA,NA,"nonword",396
"723","C75","Switch",NA,"Eclipse","LeftArrow",3.07050895690918,1,"e_e_hit",315,"1",NA,"english",2,"E","EE",NA,NA,"word",399
"724","C75","Switch",NA,"Winbut","RightArrow",3.20519590377808,1,"d_p_crj",313,"0",NA,"nonword",2,"P","GNW",NA,NA,"nonword",410
"725","C75","Switch",NA,"Trikot","LeftArrow",4.13552093505859,1,"p_d_hit",317,"1",NA,"german",2,"D","NWG",NA,NA,"word",414
"726","C75","Switch",NA,"Prekey","RightArrow",2.53185200691223,1,"e_p_crj",316,"0",NA,"nonword",2,"P","ENW",NA,NA,"nonword",426
"727","C75","Switch",NA,"Erbse","LeftArrow",3.58507394790649,1,"p_d_hit",317,"1",NA,"german",2,"D","NWG",NA,NA,"word",429
"728","C75","Switch",NA,"Juicer","LeftArrow",2.71337819099426,1,"d_e_hit",312,"1",NA,"english",2,"E","GE",1,NA,"word",431
"729","C75","Switch",NA,"Storschmitt","RightArrow",2.06564593315125,1,"e_p_crj",316,"0",NA,"nonword",2,"P","ENW",NA,NA,"nonword",434
"730","C75","Switch",NA,"Ranthog","RightArrow",2.64606308937073,1,"p_p_crj",319,"0",NA,"nonword",2,"P","NWNW",NA,NA,"nonword",435
"731","C75","Switch",NA,"Fibre","LeftArrow",2.18570995330811,1,"p_e_hit",318,"1",NA,"english",2,"E","NWE",NA,NA,"word",436
"732","C75","Switch",NA,"Meise","LeftArrow",3.54326605796814,1,"e_d_hit",314,"1",NA,"german",2,"D","EG",NA,1,"word",444
"733","C75","Switch",NA,"Stiebrik","RightArrow",2.18654990196228,1,"d_p_crj",313,"0",NA,"nonword",2,"P","GNW",NA,NA,"nonword",445
"734","C75","Switch",NA,"Reboh","RightArrow",2.65939903259277,1,"d_p_crj",313,"0",NA,"nonword",2,"P","GNW",NA,NA,"nonword",454
"735","C75","Switch",NA,"Badger","RightArrow",5.24709606170654,0,"e_e_miss",325,"1",NA,"english",2,"E","EE",NA,NA,"word",457
"736","C75","Switch",NA,"Skillet","LeftArrow",3.03570604324341,1,"d_e_hit",312,"1",NA,"english",2,"E","GE",1,NA,"word",462
"737","C75","Switch",NA,"Sommer","LeftArrow",2.22482299804688,1,"e_d_hit",314,"1",NA,"german",2,"D","EG",NA,1,"word",464
"738","C75","Switch",NA,"Ladrich","RightArrow",4.02461099624634,1,"e_p_crj",316,"0",NA,"nonword",2,"P","ENW",NA,NA,"nonword",473
"739","C75","Switch",NA,"Railtrol","RightArrow",2.46006107330322,1,"d_p_crj",313,"0",NA,"nonword",2,"P","GNW",NA,NA,"nonword",476
"740","C76","German",63,"Klempner","RightArrow",3.17533707618713,0,"Missing",165,"1","LF","german",2,NA,NA,NA,NA,"word",90
"741","C76","German",151,"Tischter","RightArrow",3.8294358253479,1,"CorrRej",162,"0","PW","german",2,NA,NA,NA,NA,"nonword",97
"742","C76","German",126,"Schratoch","RightArrow",2.40874290466309,1,"CorrRej",162,"0","PW","german",2,NA,NA,NA,NA,"nonword",123
"743","C76","German",86,"Merder","RightArrow",2.18927597999573,1,"CorrRej",162,"0","PW","german",2,NA,NA,NA,NA,"nonword",143
"744","C76","English",33,"Denset","RightArrow",2.00222897529602,1,"CorrRej",262,"0","PW","english",2,NA,NA,NA,NA,"nonword",19
"745","C76","English",137,"Siberg","LeftArrow",2.69289994239807,0,"FalseAlarm",267,"0","PW","english",2,NA,NA,NA,NA,"nonword",36
"746","C76","English",180,"Winture","LeftArrow",2.00074005126953,0,"FalseAlarm",267,"0","PW","english",2,NA,NA,NA,NA,"nonword",129
"747","C76","Switch",NA,"Rettich","LeftArrow",2.31676506996155,1,"e_d_hit",314,"1",NA,"german",2,"D","EG",NA,1,"word",126
"748","C76","Switch",NA,"Traudat","RightArrow",2.63126111030579,1,"p_p_crj",319,"0",NA,"nonword",2,"P","NWNW",NA,NA,"nonword",129
"749","C76","Switch",NA,"Beetbal","RightArrow",2.15803790092468,1,"p_p_crj",319,"0",NA,"nonword",2,"P","NWNW",NA,NA,"nonword",159
"750","C76","Switch",NA,"Schauer","LeftArrow",2.05804514884949,1,"e_d_hit",314,"1",NA,"german",2,"D","EG",NA,1,"word",223
"751","C76","Switch",NA,"Schautich","RightArrow",2.20478487014771,1,"e_p_crj",316,"0",NA,"nonword",2,"P","ENW",NA,NA,"nonword",309
"752","C76","Switch",NA,"Surfree","RightArrow",2.66562795639038,1,"p_p_crj",319,"0",NA,"nonword",2,"P","NWNW",NA,NA,"nonword",360
"753","C76","Switch",NA,"Carftbeat","RightArrow",3.05383110046387,1,"p_p_crj",319,"0",NA,"nonword",2,"P","NWNW",NA,NA,"nonword",424
"754","C76","Switch",NA,"Waldat","RightArrow",2.0379900932312,1,"d_p_crj",313,"0",NA,"nonword",2,"P","GNW",NA,NA,"nonword",465
"755","C77","German",163,"Wasser","LeftArrow",2.14507603645325,1,"Hit",161,"1","HF","german",2,NA,NA,NA,NA,"word",1
"756","C77","German",136,"Splitschaft","RightArrow",2.10544514656067,1,"CorrRej",162,"0","PW","german",2,NA,NA,NA,NA,"nonword",103
"757","C77","German",104,"Pfeimass","RightArrow",2.11307311058044,1,"CorrRej",162,"0","PW","german",2,NA,NA,NA,NA,"nonword",117
"758","C77","German",49,"Glaser","LeftArrow",2.09818601608276,1,"Hit",160,"1","LF","german",2,NA,NA,NA,NA,"word",153
"759","C77","German",24,"Ebbe","LeftArrow",2.41220712661743,1,"Hit",160,"1","LF","german",2,NA,NA,NA,NA,"word",162
"760","C77","English",17,"Cansmith","RightArrow",3.23577284812927,1,"CorrRej",262,"0","PW","english",2,NA,NA,NA,NA,"nonword",16
"761","C77","English",9,"Blacksmith","LeftArrow",2.23146605491638,1,"Hit",260,"1","LF","english",2,NA,NA,NA,NA,"word",20
"762","C77","English",160,"Trouser","LeftArrow",2.07162284851074,1,"Hit",260,"1","LF","english",2,NA,NA,NA,NA,"word",36
"763","C77","English",96,"Odour","RightArrow",4.84856796264648,0,"Missing",265,"1","LF","english",2,NA,NA,NA,NA,"word",42
"764","C77","English",49,"Gisoon","RightArrow",4.05986714363098,1,"CorrRej",262,"0","PW","english",2,NA,NA,NA,NA,"nonword",52
"765","C77","English",153,"Sweetcorn","RightArrow",2.91841316223145,0,"Missing",265,"1","LF","english",2,NA,NA,NA,NA,"word",96
"766","C77","English",1,"Ally","LeftArrow",2.33324098587036,1,"Hit",260,"1","LF","english",2,NA,NA,NA,NA,"word",129
"767","C77","English",166,"Vapour","RightArrow",4.94943404197693,0,"Missing",265,"1","LF","english",2,NA,NA,NA,NA,"word",135
"768","C77","English",121,"Racket","LeftArrow",2.21693110466003,1,"Hit",260,"1","LF","english",2,NA,NA,NA,NA,"word",179
"769","C77","Switch",NA,"Cornet","LeftArrow",4.49625778198242,1,"d_e_hit",312,"1",NA,"english",2,"E","GE",1,NA,"word",3
"770","C77","Switch",NA,"Copair","RightArrow",5.56586694717407,1,"e_p_crj",316,"0",NA,"nonword",2,"P","ENW",NA,NA,"nonword",21
"771","C77","Switch",NA,"Beetroot","RightArrow",8.64458394050598,0,"d_e_miss",322,"1",NA,"english",2,"E","GE",1,NA,"word",32
"772","C77","Switch",NA,"Quartet","LeftArrow",2.56577396392822,1,"d_e_hit",312,"1",NA,"english",2,"E","GE",1,NA,"word",62
"773","C77","Switch",NA,"Rickshaw","LeftArrow",2.58493113517761,1,"d_e_hit",312,"1",NA,"english",2,"E","GE",1,NA,"word",92
"774","C77","Switch",NA,"Petpea","RightArrow",5.01163792610168,1,"e_p_crj",316,"0",NA,"nonword",2,"P","ENW",NA,NA,"nonword",94
"775","C77","Switch",NA,"Pigmal","RightArrow",3.83548712730408,1,"d_p_crj",313,"0",NA,"nonword",2,"P","GNW",NA,NA,"nonword",117
"776","C77","Switch",NA,"Flooding","LeftArrow",3.94171690940857,1,"e_e_hit",315,"1",NA,"english",2,"E","EE",NA,NA,"word",125
"777","C77","Switch",NA,"Plantmus","RightArrow",3.64487481117249,1,"p_p_crj",319,"0",NA,"nonword",2,"P","NWNW",NA,NA,"nonword",136
"778","C77","Switch",NA,"Garbad","RightArrow",4.27474093437195,1,"e_p_crj",316,"0",NA,"nonword",2,"P","ENW",NA,NA,"nonword",155
"779","C77","Switch",NA,"Waistair","RightArrow",2.32020902633667,1,"d_p_crj",313,"0",NA,"nonword",2,"P","GNW",NA,NA,"nonword",158
"780","C77","Switch",NA,"Chainsaw","LeftArrow",3.20084285736084,1,"e_e_hit",315,"1",NA,"english",2,"E","EE",NA,NA,"word",164
"781","C77","Switch",NA,"Copper","LeftArrow",5.56159591674805,1,"p_e_hit",318,"1",NA,"english",2,"E","NWE",NA,NA,"word",169
"782","C77","Switch",NA,"Mallet","RightArrow",2.17324590682983,0,"p_e_miss",328,"1",NA,"english",2,"E","NWE",NA,NA,"word",182
"783","C77","Switch",NA,"Robin","LeftArrow",4.23691916465759,1,"d_e_hit",312,"1",NA,"english",2,"E","GE",1,NA,"word",188
"784","C77","Switch",NA,"Feitrom","RightArrow",2.00506520271301,1,"d_p_crj",313,"0",NA,"nonword",2,"P","GNW",NA,NA,"nonword",190
"785","C77","Switch",NA,"Carcaft","RightArrow",4.48227691650391,1,"p_p_crj",319,"0",NA,"nonword",2,"P","NWNW",NA,NA,"nonword",191
"786","C77","Switch",NA,"Mondon","RightArrow",4.15351390838623,1,"e_p_crj",316,"0",NA,"nonword",2,"P","ENW",NA,NA,"nonword",201
"787","C77","Switch",NA,"Schemel","LeftArrow",11.2230460643768,1,"d_d_hit",311,"1",NA,"german",2,"D","GG",NA,NA,"word",226
"788","C77","Switch",NA,"Linen","LeftArrow",5.75939798355103,1,"e_e_hit",315,"1",NA,"english",2,"E","EE",NA,NA,"word",228
"789","C77","Switch",NA,"Taucke","RightArrow",5.39326000213623,1,"p_p_crj",319,"0",NA,"nonword",2,"P","NWNW",NA,NA,"nonword",234
"790","C77","Switch",NA,"Ladder","LeftArrow",2.30830788612366,1,"p_e_hit",318,"1",NA,"english",2,"E","NWE",NA,NA,"word",239
"791","C77","Switch",NA,"Scraper","LeftArrow",2.48400402069092,1,"p_e_hit",318,"1",NA,"english",2,"E","NWE",NA,NA,"word",265
